,acc_x,acc_y,acc_z,lin_acc_x,lin_acc_y,lin_acc_z,mag_x,mag_y,mag_z,gyr_x,gyr_y,gyr_z,light_illuminance,loc_latitude,loc_height,loc_velocity,labelCycling,labelWalking,labelSitting,labelRunning,labelStanding,labelWalkingStairs,labelElevator,labelJumping,pca_1,pca_2,pca_3,pca_4,pca_5,pca_6,pca_7,pca_8,pca_9
2018-06-19 14:00:00.000,1.08431346263,3.09273718725,9.52779773362,-0.728013085346,-0.283059235086,-0.23285566591,-9.81209290791,-30.8185133198,-31.0728504722,-1.01590251505,0.260902079148,0.480742278813,13653.0,52.33287889,4.8664128,47.02087402,1,0,0,0,0,0,0,0,0.60852258109,0.407444496604,0.611832784059,0.0531934963147,0.00815993983526,-0.0625152666804,0.0195648658173,-0.017852696034,0.0197852375532
2018-06-19 14:00:00.250,0.814492401353,0.945349891203,9.02611835433,-1.04476436238,-0.261628583979,0.327247526153,7.26704881634,-23.3180939376,-33.7059885506,-0.346814188864,-0.0785950166631,-0.408461687929,14709.0,52.332888915,4.8664261675,35.4271881078,1,0,0,0,0,0,0,0,0.578614484526,0.315123089747,0.550275500939,-0.0671425363179,0.0928211471256,0.0373396853269,-0.101332361613,-0.0152978814524,0.0949278145309
2018-06-19 14:00:00.500,-1.03146806931,-0.0132403187212,10.1723445648,-1.32685514833,-0.34057426105,0.497334667299,1.72083055099,-20.7844218779,-36.2575520006,0.062729901594,0.0459165506619,0.880199697654,15968.0,52.33289894,4.866439535,23.8335021956,1,0,0,0,0,0,0,0,0.629446327199,0.245562081112,0.595467717516,0.118472553295,0.0869493419526,0.0107711768443,-0.0744956218206,0.00266140755014,0.0799827177629
2018-06-19 14:00:00.750,-1.25193103609,-0.638846420938,10.1875500393,1.17167767052,-0.694408848492,0.371917107557,-11.5248943569,-18.1971166641,-39.852276951,0.208126490183,0.321461083882,1.74541337503,17715.0,52.332908965,4.8664529025,12.2398162833,1,0,0,0,0,0,0,0,0.702013796561,0.209734015503,0.688861051413,0.241824226859,0.0174954973244,-0.114518670005,-0.0275191182982,-0.026534108659,0.0508323347796
2018-06-19 14:00:01.000,1.42655941283,-0.913629704665,10.2053275458,1.31653230551,-1.21979953363,-1.03316740035,-13.8885219697,-13.5434719291,-40.8082392358,0.538316412368,0.0609512421258,0.761101887132,17469.0,52.33291899,4.86646627,0.6461303711,1,0,0,0,0,0,0,0,0.717573713031,0.183433903377,0.730637147423,0.0644396904086,-0.051598589321,-0.109073769221,0.01156654918,-0.111827136183,0.0711998342385
2018-06-19 14:00:01.250,1.08865928683,0.910120769696,9.67686419089,-0.551391886241,-0.404170196456,0.651113154808,-13.4217853609,-12.3668999713,-38.7283217368,0.083535022247,-0.21123125337,0.164879312562,20536.0,52.3329206275,4.8664767175,0.4104888916,1,0,0,0,0,0,0,0,0.737950099722,0.235859950623,0.75375996714,0.0184386334342,-0.0612942366698,-0.029240717433,-0.0132587790583,0.0589276621335,0.0845612947722
2018-06-19 14:00:01.500,-0.994061579881,2.23570605819,8.4934056434,0.393540283543,0.281072625514,0.302656977824,-14.8551836902,-11.5202021564,-39.0643183882,-0.316031109099,0.174309219167,0.34358534759,21131.0,52.332922265,4.866487165,0.1748474121,1,0,0,0,0,0,0,0,0.718247988087,0.251266108238,0.741183236205,0.100055915081,-0.0807039186558,-0.00753347674055,0.0220605075307,0.0081212704245,0.0635333259816
2018-06-19 14:00:01.750,0.119634460805,0.714916000877,9.52887438118,-0.102508502211,-0.884073037025,-0.454932138067,-14.8014937283,-8.76009473475,-40.1880986352,0.179261244953,-0.223183903216,0.0977267452155,21213.0,52.3329239025,4.8664976125,-0.0607940674,1,0,0,0,0,0,0,0,0.746989906795,0.198105713916,0.764961322114,0.0102752767554,-0.0884780309246,-0.00633777648739,0.0310921340435,-0.0282121445084,0.103824846965
2018-06-19 14:00:02.000,1.00173174508,0.201401471078,9.9418923686,-1.53406782037,-0.493961408305,-0.0373136483422,-19.9688346753,-7.87765423888,-37.5772502111,-0.260269819119,-0.901368263263,0.0719430775822,20799.0,52.33292554,4.86650806,-0.2964355469,1,0,0,0,0,0,0,0,0.758169424899,0.182703956269,0.782881737452,-0.0681594414199,-0.122607244898,-0.00343561683377,0.0563095432287,0.0797456428779,0.0804225473468
2018-06-19 14:00:02.250,1.55625505979,0.962450142017,9.47705025101,-0.367097682358,1.21199950177,0.853343257906,-25.5936778612,-4.27519187166,-35.3471266951,-0.500305790858,0.205660015723,0.417205823193,19841.0,52.33292903,4.86652196,-0.05220336915,1,0,0,0,0,0,0,0,0.750319928949,0.178502397004,0.769856573624,0.0805117746489,-0.176903201189,-0.0962573112657,0.0747081812045,0.109757011316,0.0476032917819
2018-06-19 14:00:02.500,2.02667139303,0.334043173944,10.65813154,-0.631674414067,0.676747806258,1.48728714739,-22.5195609971,0.261628771144,-37.2797081361,0.205992406417,0.400465728491,0.372194704398,17949.0,52.33293252,4.86653586,0.1920288086,1,0,0,0,0,0,0,0,0.747530458041,0.111351618258,0.741780886115,0.10188643112,-0.140002873892,-0.112584172905,0.029164887748,0.149717604629,0.0741248240796
2018-06-19 14:00:02.750,0.248177499903,-0.202843183699,10.725735667,-1.93207855917,-0.418575066866,0.698226779102,-22.5409658312,0.810238614554,-37.8714940304,0.412567508568,-0.699807887345,0.644757538555,16110.0,52.33293601,4.86654976,0.43626098635,1,0,0,0,0,0,0,0,0.715594109033,0.0631512857394,0.710287475795,0.0365445751265,-0.119818419261,-0.0401963879104,0.0595683031624,0.159281650665,0.0657156418127
2018-06-19 14:00:03.000,0.520047919212,-0.00454678307509,9.4398375027,-0.818172898239,-0.663295805499,-0.725777252069,-25.6684033438,1.46876335419,-36.2106909842,0.743463579414,0.535686620486,1.03759440236,15250.0,52.3329395,4.86656366,0.6804931641,1,0,0,0,0,0,0,0,0.685403105614,0.0728420276072,0.688776120486,0.172366149681,-0.18598418071,-0.114713170773,0.1355183706,-0.0277754854423,0.0483056198087
2018-06-19 14:00:03.250,1.49038980002,0.880175862029,8.68069472683,0.434063375341,-0.849810306857,0.01360771176,-16.9796821288,0.569579502755,-39.9463228646,0.278533992656,1.19993047809,0.281575938907,17424.0,52.332943195,4.8665762175,0.457455444375,1,0,0,0,0,0,0,0,0.691152389842,0.122967146008,0.698101812362,0.148583825835,-0.130165584985,-0.11630808093,0.0502037281791,-0.0591956855011,0.0746535122091
2018-06-19 14:00:03.500,-0.650460960545,1.75040676502,9.1648204061,0.289183375164,-0.475414081728,-1.0491261763,-7.85376177616,1.70213287306,-44.9682990467,-0.440266403686,0.0648892111724,-0.445377153939,19308.0,52.33294689,4.866588775,0.23441772465,1,0,0,0,0,0,0,0,0.697658463829,0.110805927839,0.70996072097,-0.0203156940885,-0.0614395170602,0.0648285608313,0.0302575171216,-0.0946597539223,0.126675378582
2018-06-19 14:00:03.750,-2.28454751604,1.0443862527,10.1282259632,-0.24497407589,-0.250334805522,1.47507469326,-8.18948551075,4.99869952708,-44.8684718848,0.635203714457,0.772375359357,-0.264554851965,19146.0,52.332950585,4.8666013325,0.011380004925,1,0,0,0,0,0,0,0,0.712242147499,0.0549090777077,0.684772835234,0.135990382729,-0.0206291460788,0.0304040323993,-0.0367135680709,0.0740904984885,0.124875094145
2018-06-19 14:00:04.000,-3.44418813226,1.13343270092,8.33996772878,-0.683550881158,-0.5484768793,-0.659913932587,-2.8893098269,-0.34405617491,-46.4362189294,0.297194785361,0.393102279929,-0.340146268045,15023.0,52.33295428,4.86661389,-0.2116577148,1,0,0,0,0,0,0,0,0.603260373746,0.0677828383244,0.60119196685,0.0597208155131,0.0161629976927,0.108594194957,0.0154467848776,-0.0922088166307,0.0570163906684
2018-06-19 14:00:04.250,-3.68492208967,0.981092253357,7.05998181071,-0.309159767277,-0.62610853103,-0.0392069443196,2.03543024471,1.92952159814,-46.5913256839,-1.59413193458,-1.27353637849,-0.156302151871,15343.5,52.33295381,4.86662765667,-0.305550130167,1,0,0,0,0,0,0,0,0.569462446214,0.052395383779,0.575295012493,-0.0999302107789,0.0581251488384,0.152163040405,-0.0475080634001,0.0190810632891,0.0540552721297
2018-06-19 14:00:04.500,-2.30135364987,-2.17143643654,9.91309111451,0.506085121454,-0.973213586371,-0.0188770675676,-4.66223985407,19.0276924956,-41.7423554373,-0.984525184084,0.271691384213,0.428372540249,10272.0,52.33295334,4.86664142333,-0.399442545533,1,0,0,0,0,0,0,0,0.571183363076,-0.174210428436,0.510834865299,0.0778577982439,-0.0276871724859,-0.0302861935888,-0.0205892106058,-0.00899764447095,0.059403007765
2018-06-19 14:00:04.750,-4.19309310925,-3.76874567415,10.9620630774,0.376959542202,-1.24831724799,0.791103166639,0.715756547815,23.6414607356,-41.9910190686,1.05630731811,1.97189842287,0.038921478642,12436.0,52.33295287,4.86665519,-0.4933349609,1,0,0,0,0,0,0,0,0.602619513218,-0.240256367772,0.49288201133,0.257524137464,-0.0028337322539,-0.0343126403485,-0.0592729022568,-0.0548282489167,0.123726929998
2018-06-19 14:00:05.000,-7.4418423921,-2.66255690289,6.62649554406,-0.392715251397,-0.802757021183,2.07349310203,24.0952723281,15.4377403175,-36.3746131527,2.07058298685,2.00115941367,0.119013054371,18590.0,52.332956844,4.866664612,-0.4989990234,1,0,0,0,0,0,0,0,0.510607762598,-0.0839997004074,0.395053413114,0.342194916807,0.106261475638,0.116776784215,-0.181201928882,-0.0631746419651,0.223949577846
2018-06-19 14:00:05.250,-8.20417225804,-1.22646491515,-0.99408351568,-0.803440615445,-0.511009168139,-0.779327659006,35.9454898912,5.20939397304,-11.2889300822,1.40030743614,2.26793505824,1.55939073175,13240.5,52.332960818,4.866674034,-0.5046630859,1,0,0,0,0,0,0,0,0.177283978426,0.0926807822646,0.107992234864,0.44868655875,0.0106581187912,0.105587523524,-0.0775083082372,-0.338588442778,0.150819185008
2018-06-19 14:00:05.500,-6.98823667609,1.36869458381,-7.21614785562,-0.189170126726,-0.816501125882,1.13661378972,30.6589049059,-12.538688378,13.0351654145,-0.16109930436,0.980317740561,1.75801665985,1054.0,52.332964792,4.866683456,-0.5103271484,1,0,0,0,0,0,0,0,-0.164813388605,0.310640631932,-0.152122779586,0.297199678824,-0.0322632125434,-0.0461330273533,-0.0989802678109,-0.094253647824,-0.101295360191
2018-06-19 14:00:05.750,-3.52230718253,3.36439017903,-7.48009400469,1.08221389093,-1.05390113638,0.64204257965,26.9187955317,-27.6892092082,21.2260412517,-0.458706800763,-0.71421736869,0.360843972346,232.0,52.332968766,4.866692878,-0.5159912109,1,0,0,0,0,0,0,0,-0.198757755757,0.511654405096,-0.0983704260929,-0.0677153562058,-0.0573071157871,-0.0546749518101,-0.106327604309,-0.0205175137474,-0.108596618749
2018-06-19 14:00:06.000,-3.08926196913,4.25790289491,-6.06984140069,0.434031228311,-0.632581733838,0.479808966301,29.8718296784,-32.4593250684,20.502263429,-0.0173632152065,-0.680952058078,-0.621462665637,310.0,52.33297274,4.8667023,-0.5216552734,1,0,0,0,0,0,0,0,-0.186057477174,0.559581909013,-0.0711036732805,-0.161149619683,-0.0224448864998,0.0108290756239,-0.118012389587,-0.0166930363578,-0.093993842788
2018-06-19 14:00:06.250,-7.09797853711,4.47039444056,-6.55535147439,-1.33173931274,0.0166981297971,-0.850934037937,33.4907870993,-31.4148004683,16.0754730056,-0.0127485764264,-0.561065724796,-0.702439472604,388.0,52.3329868167,4.86671593,0.108471679733,1,0,0,0,0,0,0,0,-0.209379543108,0.514514206048,-0.106330393271,-0.116206000234,0.00840593854769,0.170232268001,-0.0479213613145,-0.120335379189,-0.120494329036
2018-06-19 14:00:06.500,-8.59539861038,3.16810653489,-5.79504565646,-0.995450383875,0.269551343575,-0.477338145804,36.3366453796,-26.6542911193,12.0526724368,0.0705245422766,0.0629675747823,-0.0377132148821,248.0,52.3330008933,4.86672956,0.738598632867,1,0,0,0,0,0,0,0,-0.194585680273,0.424470094986,-0.127827171799,0.0334239866943,0.0533695321494,0.152553746048,-0.0701183176683,-0.141524137346,-0.11505751219
2018-06-19 14:00:06.750,-7.85993564607,3.84961952243,-5.76370117128,-0.525501596303,0.129232563561,-0.565716238029,37.0519017745,-27.1006987141,13.6713211259,-0.0560908148626,1.17777750458,0.79507244945,216.0,52.33301497,4.86674319,1.368725586,1,0,0,0,0,0,0,0,-0.201739337304,0.448305813207,-0.138188568777,0.216714869414,0.0437671373437,0.0727649455562,-0.0617164650647,-0.215820794181,-0.113539798472
2018-06-19 14:00:07.000,-5.69224973914,5.34501689217,-7.32277131373,-0.356624213704,-0.620877957425,0.680448700449,29.9621049135,-33.4530388691,18.2590638577,-0.415609382534,0.746047485023,0.684020330387,282.0,52.33301979,4.866749938,1.6229858398,1,0,0,0,0,0,0,0,-0.216188770647,0.566122592277,-0.112131943624,0.149582726906,0.00183468899345,-0.0102109129544,-0.0707868889918,-0.0886055371994,-0.156042411604
2018-06-19 14:00:07.250,-2.02518964815,4.435110935,-6.3578401892,0.989600888411,-1.29933195551,1.03327750223,22.0606384739,-36.9174364638,18.8861114718,-0.419510852391,-0.328375583255,-0.225256797307,250.0,52.33302461,4.866756686,1.8772460936,1,0,0,0,0,0,0,0,-0.163670409977,0.600726911669,-0.0254284669885,-0.100800809512,-0.0294117736258,-0.0953631883607,-0.0913164223892,0.00803551590836,-0.14933218537
2018-06-19 14:00:07.500,-2.92264071993,4.8423959567,-5.05468819149,0.204760011267,-0.72205246488,-0.175556463293,25.1280649513,-36.6681954876,15.6128231322,0.0627964717639,-0.715721948589,-0.857960397088,347.5,52.33302943,4.866763434,2.1315063474,1,0,0,0,0,0,0,0,-0.147035902499,0.583114387171,-0.00739094368602,-0.192037181728,-0.00555458378166,0.0236287946069,-0.0630284597653,-0.0469964185422,-0.111933941557
2018-06-19 14:00:07.750,-6.82512385359,5.16474016627,-5.91171382682,-1.51375787256,0.260802190173,-0.116910036808,31.7732071,-31.2402154873,13.085939447,0.583921459589,-0.652231582289,-0.669084398072,439.0,52.33303425,4.866770182,2.3857666012,1,0,0,0,0,0,0,0,-0.184674845264,0.518613454621,-0.0797888907405,-0.0982742610473,0.0343663158551,0.16834024646,-0.0527315844348,-0.0471749374975,-0.0980045112775
2018-06-19 14:00:08.000,-8.57126361976,3.62099606715,-6.24225157776,-0.866169883245,0.49439189059,-0.364832735062,34.7008265786,-25.3657229783,12.1114759143,0.332417553243,0.134542263339,0.171928088569,321.0,52.33303907,4.86677693,2.640026855,1,0,0,0,0,0,0,0,-0.198701801081,0.428008120938,-0.128466141076,0.0702554659902,0.042824805452,0.138553198742,-0.0484830269641,-0.13258462507,-0.101445728763
2018-06-19 14:00:08.250,-8.344507562,4.05800502685,-6.2160612945,-0.438493373065,-0.0252100733166,-0.603003081172,34.382101063,-27.7929514353,13.6719641438,-0.296268341347,1.09461304466,0.844940780438,229.0,52.33304355,4.8667834125,2.8011749265,1,0,0,0,0,0,0,0,-0.207747283083,0.455721606415,-0.132804431631,0.21632436059,0.0376006567329,0.0659392893607,-0.0355063901739,-0.209575915222,-0.132594899105
2018-06-19 14:00:08.500,-4.67140844531,4.77784273535,-6.5052482278,0.0732880914523,-0.95316559825,1.23865897041,27.4409105687,-33.3708343065,16.7711425954,-0.525297244552,0.745102884263,0.512452266107,263.5,52.33304803,4.866789895,2.962322998,1,0,0,0,0,0,0,0,-0.187721443079,0.552700059731,-0.0796606170826,0.119957250277,0.0137797557421,-0.060235534971,-0.085614805914,-0.0415430947521,-0.158830468365
2018-06-19 14:00:08.750,-1.68795280875,4.91827351385,-5.6018587626,1.01145280706,-1.1606218078,0.753240332873,22.1722216467,-36.3590370846,16.5120870952,-0.125036653594,-0.502420948134,-0.476219421712,267.0,52.33305251,4.8667963775,3.1234710695,1,0,0,0,0,0,0,0,-0.146573026869,0.597837694138,-0.0013067358971,-0.141711162631,-0.0156503867974,-0.0707172400504,-0.0816102700373,0.00474391285723,-0.120633020994
2018-06-19 14:00:09.000,-4.73422726896,5.59668827409,-5.1110937705,-0.461019186335,-0.153712658778,0.726931534571,27.23024736,-34.7105533694,14.5427506344,0.677335117356,-0.908329137064,-0.935642525178,435.0,52.33305699,4.86680286,3.284619141,1,0,0,0,0,0,0,0,-0.158804844693,0.569251486711,-0.030300593814,-0.165443440505,0.0306848839206,0.0878714673535,-0.0799731761026,0.0423870044982,-0.0908152372771
2018-06-19 14:00:09.250,-8.21623713329,4.45175950312,-6.2939237361,-2.00823466662,0.883644116922,-0.826350898756,34.1072622413,-27.6356550303,14.8580142095,0.531109106293,-0.195020568594,-0.326473474474,449.0,52.3330623025,4.86681002,3.78274230975,1,0,0,0,0,0,0,0,-0.21073620854,0.470865369342,-0.120918070662,-0.0148373406276,0.0230306178587,0.193735846953,-0.00841644724615,-0.123471951985,-0.0915855227716
2018-06-19 14:00:09.500,-8.33835928833,3.54667527546,-6.67282816292,-1.32311862492,0.729522114981,0.113850378596,35.0504153696,-24.9871231984,16.7359563344,-0.36452128513,0.656393413242,0.747066749853,271.5,52.333067615,4.86681718,4.2808654785,1,0,0,0,0,0,0,0,-0.225337122372,0.434821359957,-0.158095814024,0.170449886638,0.0303299775988,0.0884702332893,-0.0400461944771,-0.116322774443,-0.121615288205
2018-06-19 14:00:09.750,-6.11673363615,4.30060752271,-5.89384451104,0.0216840232729,-0.741755765979,0.307669134633,27.6745695996,-31.4639092494,18.1406295589,-0.455923705807,0.740927877519,1.01832811968,288.0,52.3330729275,4.86682434,4.77898864725,1,0,0,0,0,0,0,0,-0.192295504769,0.51278328806,-0.091761107231,0.179278016121,0.00908327140608,-0.0391512924693,-0.0412281464634,-0.101740315086,-0.137398100266
2018-06-19 14:00:10.000,-2.78884676756,4.60435016128,-5.76195811061,0.941655594338,-1.79066133776,0.608644055382,19.2258626905,-37.583601417,17.0577506735,-0.103463755589,-0.0994661482686,-0.0312715673397,249.0,52.33307824,4.8668315,5.277111816,1,0,0,0,0,0,0,0,-0.150489205681,0.592258341059,-0.00427057891921,-0.0479609052216,-0.0198730394738,-0.103712406345,-0.0461758446211,-0.0261660524853,-0.146266791086
2018-06-19 14:00:10.250,-3.20014609534,5.0158536695,-5.76823018922,0.30878035504,-1.00038696168,1.23615248682,22.5849591644,-35.7013797205,15.2068128246,0.294648157517,-0.813448954412,-1.11327412933,357.0,52.333084045,4.8668399075,5.77717285125,1,0,0,0,0,0,0,0,-0.153059120516,0.584513538327,-0.0106979368645,-0.204338639944,0.00964147676537,-0.0033248440494,-0.0798512644572,0.0689400840855,-0.118620068623
2018-06-19 14:00:10.500,-7.2204463138,4.48566540371,-5.67836470624,-1.12752889517,0.0949523734334,-1.07838276322,30.8642930545,-27.4847355891,15.3166614799,0.506984624555,-0.544624732141,-0.778316798293,486.0,52.33308985,4.866848315,6.2772338865,1,0,0,0,0,0,0,0,-0.191814135957,0.476282555357,-0.0872062758888,-0.114553613032,0.00781266063851,0.162604675046,0.000116355655039,-0.1152979373,-0.0713858165625
2018-06-19 14:00:10.750,-9.04235586425,3.29584036022,-6.61772090045,-1.35398024194,0.284935856478,-0.939689224884,32.6951255154,-23.6441891683,16.0069560935,-0.2698939867,0.341617555048,0.378378643519,345.0,52.333095655,4.8668567225,6.77729492175,1,0,0,0,0,0,0,0,-0.220828423159,0.411936721115,-0.145380845272,0.096742768144,0.01110973992,0.123524237108,0.0139767334824,-0.170061770276,-0.112264798817
2018-06-19 14:00:11.000,-7.16272680156,3.76396254058,-6.90376712854,-0.548926547516,-0.0943180493575,0.126321988938,29.9411474255,-29.5177552119,15.858123205,-0.840539342751,0.894681969333,0.730704098966,245.0,52.33310146,4.86686513,7.277355957,1,0,0,0,0,0,0,0,-0.213419354728,0.481270318165,-0.118654450078,0.165151352065,0.0241713816924,0.00939946728109,-0.0186999221377,-0.132238087947,-0.160020791715
2018-06-19 14:00:11.250,-4.225334993,4.46116081274,-5.44330357233,0.382359245695,-1.15519443426,0.315315097015,24.1642212059,-35.0123392373,14.7579132853,-0.190661939494,0.4385548636,0.212238980753,300.0,52.3331072125,4.8668716675,7.80540161125,1,0,0,0,0,0,0,0,-0.159773365706,0.549725198884,-0.0323579476286,0.0442531563037,0.0180546244376,-0.0583251896698,-0.0353727213986,-0.0816876461199,-0.135162060769
2018-06-19 14:00:11.500,-3.79069912187,5.36162889843,-5.49432427717,0.44487196067,-1.51133401476,0.130074539207,20.7964908181,-34.7282504084,14.3901032393,0.255777473672,-0.179887678046,-0.170754983791,238.0,52.333112965,4.866878205,8.3334472655,1,0,0,0,0,0,0,0,-0.150120259376,0.569447148616,-0.00833869616323,-0.0495238804357,-0.00495820199834,-0.0372280182819,-0.0179821736883,-0.0485007342132,-0.113224569821
2018-06-19 14:00:11.750,-4.99980612199,6.13407651468,-6.90205975432,-0.169288275938,-0.340600115131,-0.288714371422,23.9236152168,-33.8861908984,15.4748895054,-0.0405002453818,-0.0497092285136,-0.26119717465,404.5,52.3331187175,4.8668847425,8.86149291975,1,0,0,0,0,0,0,0,-0.19083482841,0.582830536244,-0.0491017742554,-0.0353042096747,-0.0140969950588,0.0335556533033,0.0118466827118,-0.0880004097657,-0.12246340138
2018-06-19 14:00:12.000,-4.73398625421,5.06077535015,-6.54239838221,-0.0713431467967,-0.138231290798,-0.995821027192,25.6941656782,-33.7073955622,15.0361759254,-0.221493276103,0.0898513907683,-0.178050240435,375.0,52.33312447,4.86689128,9.389538574,1,0,0,0,0,0,0,0,-0.187497763078,0.557363307564,-0.0497638584599,-0.0363434843321,-0.00902296722438,0.0300790077726,0.0247240752307,-0.157591972958,-0.118863317659
2018-06-19 14:00:12.250,-4.65983676212,4.93844869698,-6.49191491608,0.107613927143,-0.912947315131,0.0997432166335,24.4678890838,-33.4831656851,13.5490099753,-0.187814408385,0.0560036950894,-0.0401320768263,368.0,52.333127915,4.86689496,9.3089874265,1,0,0,0,0,0,0,0,-0.175568070099,0.550602813499,-0.0432848572909,-0.0128731542745,0.0129586744247,-0.0104947314607,-0.0149777746461,-0.0796473912801,-0.129185756778
2018-06-19 14:00:12.500,-5.02583527548,5.749095321,-7.40367258864,-0.237552697486,-0.553246801533,-1.13412815915,25.7616292013,-33.7061543367,12.9199369508,-0.23589156724,0.248756397076,-0.208004422068,381.0,52.33313136,4.86689864,9.228436279,1,0,0,0,0,0,0,0,-0.197365661429,0.570123520515,-0.0544388442723,-0.0193333387919,-0.00800346402366,0.042188409869,0.0368087989966,-0.186791784534,-0.131515781943
2018-06-19 14:00:12.750,-4.36318848635,4.93703692974,-6.51779517787,-0.109800771761,-0.341399335899,-0.51775634764,28.5369530755,-32.8347175989,11.5825442223,-0.338976168765,0.244031711258,-0.349567021708,396.0,52.333134805,4.86690232,9.1478851315,1,0,0,0,0,0,0,0,-0.180912112186,0.544137399147,-0.0494089479826,-0.0410805310311,0.0272062606003,0.0304286474276,-0.00952538778686,-0.145379744435,-0.119820299649
2018-06-19 14:00:13.000,-4.65427940026,5.06486623817,-5.97200832108,0.205205458569,-0.968598491629,-1.07333107559,30.3613034735,-30.5919907504,10.1075235771,-0.292805863382,0.152969256836,-0.239709282382,437.0,52.33313825,4.866906,9.067333984,1,0,0,0,0,0,0,0,-0.174091259249,0.519255333311,-0.04802188547,-0.0394987644653,0.0372872381808,0.043531264975,-0.0110164163818,-0.189069220323,-0.0903482582992
2018-06-19 14:00:13.250,-5.65805126564,6.07028445038,-6.79484594337,0.076982689548,-0.896607036791,-0.0159669950494,31.856311368,-28.2553508446,9.77767288229,-0.116668922053,0.232165571025,-0.223831457468,448.0,52.3331434825,4.8669094075,9.569439698,1,0,0,0,0,0,0,0,-0.193009049497,0.521562814381,-0.0787328414269,0.00601220182984,0.052079733544,0.060992019128,-0.0413045582771,-0.115904865946,-0.0866309715408
2018-06-19 14:00:13.500,-5.44054089462,5.37311315697,-6.36771018495,-0.145842260025,-0.437892474724,-0.819417635645,34.1782137332,-27.0487508588,8.85265034442,-0.246510010701,0.206057624699,-0.231706702669,440.0,52.333148715,4.866912815,10.071545412,1,0,0,0,0,0,0,0,-0.188387818774,0.493661404449,-0.0793988729629,-0.0154706807377,0.0558430691535,0.0870988456602,-0.02421817832,-0.177667873511,-0.0717673366429
2018-06-19 14:00:13.750,-5.08825335877,5.08085706067,-5.99012884371,-0.332937507902,-0.596557663841,-1.0704350377,36.631465814,-27.1348651869,7.01133683336,-0.450344611665,0.258330382517,-0.236034703281,452.5,52.3331539475,4.8669162225,10.573651126,1,0,0,0,0,0,0,0,-0.181822843572,0.483295719403,-0.0759277781861,-0.023617874802,0.0778201269119,0.0950841940901,-0.0320131856463,-0.208136092747,-0.0671360999686
2018-06-19 14:00:14.000,-5.48083927566,5.64790231108,-6.49863514362,-0.170895727136,-1.11763263624,-0.361916317683,37.4295648175,-25.6088690893,7.32120482466,-0.234442138237,0.383718022061,-0.234799102074,476.0,52.33315918,4.86691963,11.07575684,1,0,0,0,0,0,0,0,-0.19329552621,0.486938666681,-0.0952101900048,0.00778639705777,0.0846322125911,0.0843556710529,-0.0580550777308,-0.167526619256,-0.0591208906265
2018-06-19 14:00:14.250,-5.56645163753,5.4375155886,-6.23600090172,-0.102161645699,-0.863525771456,-0.821021005168,38.2036934907,-22.2821777672,9.45604607489,-0.212350294696,0.4057686957,-0.190580819159,509.0,52.3331652875,4.8669229075,11.421704105,1,0,0,0,0,0,0,0,-0.197146519722,0.459732804897,-0.108662390411,0.00976807466958,0.0623281416862,0.092487440187,-0.0424104098733,-0.195108151518,-0.0321804191821
2018-06-19 14:00:14.500,-5.11784637706,5.80941607612,-5.96770249049,-0.751777741187,-0.0508306456805,-0.422568517521,40.1735531758,-21.473279302,9.01530350052,-0.331605980484,0.524552555481,-0.158656742544,529.0,52.333171395,4.866926185,11.76765137,1,0,0,0,0,0,0,0,-0.194460185379,0.460797505685,-0.11253460234,0.0280315446985,0.0746165555264,0.110454665732,-0.053614465123,-0.162885326662,-0.025583921766
2018-06-19 14:00:14.750,-4.75369341549,6.22790867029,-6.11954851193,-0.37947103511,-0.69026646111,-0.255734443689,40.2212066689,-24.6111433472,8.09306525853,-0.0281482955252,0.43242015981,0.138120271939,561.0,52.3331775025,4.8669294625,12.113598635,1,0,0,0,0,0,0,0,-0.193663795247,0.495745909897,-0.102776955608,0.0521894652492,0.0941874750753,0.0836564651103,-0.0693641942649,-0.159693651994,-0.0191966384075
2018-06-19 14:00:15.000,-3.79099520936,5.59534522469,-6.0231386838,0.690878484472,-1.59586710025,0.418290872656,38.511107467,-29.3380846967,9.35914396256,-0.030483584786,-0.00769061604999,0.028872636352,563.5,52.33318361,4.86693274,12.4595459,1,0,0,0,0,0,0,0,-0.187404348437,0.531600834154,-0.0818632548745,-0.0159215464881,0.113111781004,0.0180049306233,-0.112338608406,-0.0990021517066,-0.0282762481548
2018-06-19 14:00:15.250,-3.35465245155,5.53174527818,-5.90523679041,-0.186720403883,-0.740772753091,0.072653106598,38.8337850674,-29.9317068416,8.02672894126,-0.178355636606,-0.276072720914,-0.942466967327,602.0,52.3331902475,4.8669348525,12.4708984375,1,0,0,0,0,0,0,0,-0.180091529763,0.535546376866,-0.0664830692995,-0.153519225747,0.10997868359,0.0878940441282,-0.0929528784026,-0.0951358646799,-0.0395697579987
2018-06-19 14:00:15.500,-5.81307852778,4.99495246262,-5.70521712384,-1.3459395092,-0.056187050581,-0.765216350494,40.3282619585,-22.7159607824,5.54066203598,0.0989420310571,-0.24533673029,-1.16101436623,614.0,52.333196885,4.866936965,12.482250975,1,0,0,0,0,0,0,0,-0.179022682324,0.442432075007,-0.0938893610526,-0.143988932377,0.101583716166,0.19503822706,-0.0443711789155,-0.144375945861,-0.0254297386966
2018-06-19 14:00:15.750,-8.67879595876,3.81982874443,-5.66498219276,-1.13925905344,0.0304609896843,-0.279606959391,40.105892706,-14.8787924336,8.00641299492,0.099360172379,0.185212078369,-0.153993234562,523.0,52.3332035225,4.8669390775,12.4936035125,1,0,0,0,0,0,0,0,-0.192145036065,0.339792784395,-0.150991087796,0.0416393623022,0.091639248823,0.172293919506,-0.0411224120668,-0.126401367237,-0.0218098172131
2018-06-19 14:00:16.000,-8.65275214441,4.28878168617,-6.02827116582,-1.11294107533,0.243030821727,0.357150760362,37.2024932387,-11.9813343785,14.6609795809,-0.0603703802131,0.844793128672,0.79831189823,371.5,52.33321016,4.86694119,12.50495605,1,0,0,0,0,0,0,0,-0.21232934846,0.341396217212,-0.184160956011,0.213066503813,0.0392307259943,0.092278062445,-0.0265613028441,-0.0941335418118,-0.0245443070768
2018-06-19 14:00:16.250,-5.60734206936,4.55117880287,-6.28237904213,-0.656488788628,-0.763940420777,0.541638536468,31.2472373052,-10.8289200349,22.922095678,-0.194064409063,0.744982863009,0.89474582824,349.0,52.3332177275,4.866944405,12.67080383,1,0,0,0,0,0,0,0,-0.213509357276,0.381778658468,-0.170573687712,0.171110497091,-0.0510191121974,-0.022323662079,-0.0129892056682,-0.0535625618866,-0.00419515918851
2018-06-19 14:00:16.500,-2.11628736873,4.25576892271,-6.19710199086,0.406945381752,-1.59417566071,1.42881262533,27.329114081,-10.9798537907,29.3199073595,-0.279987056362,-0.148024117581,-0.198224018318,360.0,52.333225295,4.86694762,12.83665161,1,0,0,0,0,0,0,0,-0.20471913485,0.424330684847,-0.140995813472,-0.072975257001,-0.101191752445,-0.0995437343893,-0.0590489473163,0.0760932047151,0.0241724881808
2018-06-19 14:00:16.750,-3.33855501061,4.9551557521,-6.0891151466,-0.096884308039,-0.630567327752,0.539583327695,30.9216757651,-8.56708236979,30.0695039944,0.351856698791,-0.669459577411,-1.21786099399,491.0,52.3332328625,4.866950835,13.00249939,1,0,0,0,0,0,0,0,-0.220777660286,0.416215532822,-0.158759455322,-0.208329126656,-0.10748348047,0.0325023074794,-0.0354274970955,0.054698116475,0.0719452334646
2018-06-19 14:00:17.000,-7.45837872432,4.08913456901,-6.5150444811,-1.78695119123,0.37259704078,0.368160275804,36.0884063702,1.09307953341,26.2756425028,0.579044131895,-0.332915466865,-0.755681593345,630.5,52.33324043,4.86695405,13.16834717,1,0,0,0,0,0,0,0,-0.23803971485,0.286266695833,-0.229151780939,-0.0690715448469,-0.0819750496656,0.154527762066,-0.008196491409,0.0239384441447,0.0790043789743
2018-06-19 14:00:17.250,-8.09549922923,2.48301986946,-6.82555875195,-2.0545730629,0.486581681857,-0.929827251422,37.4511559391,6.83965113075,22.9342813253,-0.228789360812,0.373640685343,0.181081266672,450.0,52.3332470975,4.8669569025,12.9981201175,1,0,0,0,0,0,0,0,-0.236830461203,0.192379941248,-0.252116911599,0.0678900308619,-0.0943481220069,0.138683083829,0.0447058910885,-0.131978711692,0.0578522748518
2018-06-19 14:00:17.500,-7.08427424032,3.1355111936,-6.38468998278,-0.612117686329,-0.293665742196,0.338169266152,37.3920949577,0.534006594066,24.71640166,-0.515270278738,0.802634935266,0.716139129428,322.0,52.333253765,4.866959755,12.827893065,1,0,0,0,0,0,0,0,-0.236891208062,0.261986520651,-0.240424802974,0.161415098559,-0.0552094865271,0.0242840247472,-0.0227617327567,-0.0754472522959,0.0384100535895
2018-06-19 14:00:17.750,-5.72415852397,4.37786986348,-6.46358125722,0.146664418799,-1.1084935243,0.89699734893,33.6206123672,-8.42287090887,28.1786705136,-0.337618439915,0.655055482004,0.695955227384,384.0,52.3332604325,4.8669626075,12.6576660125,1,0,0,0,0,0,0,0,-0.23919116768,0.375717275483,-0.206981686417,0.138812819043,-0.0575052399624,-0.0450424256893,-0.0401332936416,-0.0227799371106,0.0212949503276
2018-06-19 14:00:18.000,-2.59471596631,5.40224383574,-6.90178657486,-0.305687923774,-0.533441764945,0.562715175154,27.9366705177,-13.4018516035,27.8094712043,-0.168573693924,0.126279764468,-0.0470324979728,387.0,52.3332671,4.86696546,12.48743896,1,0,0,0,0,0,0,0,-0.218641639274,0.461726717108,-0.144782390251,-0.0249211754873,-0.103478914961,-0.0469299988784,-0.00102620069802,0.000147645445438,0.0123195922454
2018-06-19 14:00:18.250,-2.32527347798,6.17255699798,-6.83715431123,-0.740361818607,0.15626593189,0.451494104735,28.4400228455,-15.4066553221,27.4855272629,0.207087049785,-0.152955390665,-0.250991431203,635.0,52.3332739525,4.86696638,12.0749938925,1,0,0,0,0,0,0,0,-0.215566138992,0.495541356316,-0.131902714998,-0.0646396354185,-0.0997636967251,-0.00405296939282,0.00674852233553,0.0157316198338,0.0285192460945
2018-06-19 14:00:18.500,-4.13636976364,5.69272239318,-7.20143376868,-0.994387977909,-0.00909621377679,-0.366222391157,29.3145848207,-15.7756814723,28.9547611601,0.0286758183567,0.0543983661967,0.269395686281,641.0,52.333280805,4.8669673,11.662548825,1,0,0,0,0,0,0,0,-0.23803814591,0.477287544358,-0.160299674102,0.0156343046334,-0.102725335653,0.0136715753314,0.0440633382137,-0.0624058819076,0.0109506031441
2018-06-19 14:00:18.750,-2.7933692867,5.32537127757,-7.23639198219,-0.398497557603,-0.395030332625,-0.199583717475,26.3300396927,-17.2658371685,28.9476952665,-0.253566049444,0.00888672490988,0.0157214854227,660.0,52.3332876575,4.86696822,11.2501037575,1,0,0,0,0,0,0,0,-0.223224415793,0.492978802233,-0.133887795886,-0.0400422311816,-0.116482077208,-0.0377156796202,0.0390831582561,-0.0500663654329,-0.00733826484238
2018-06-19 14:00:19.000,-2.491986736,5.44495548067,-6.15415930878,0.457608671942,-0.964052603664,1.37224604096,29.0392071275,-17.8507581271,28.3464085826,0.208384198914,-0.498735344142,-0.637483011393,655.0,52.33329451,4.86696914,10.83765869,1,0,0,0,0,0,0,0,-0.208197894693,0.499113197025,-0.125234562717,-0.134731010025,-0.0582555159012,-0.0447411646855,-0.0594296490371,0.0916730778175,0.0254740237595
2018-06-19 14:00:19.250,-5.60652823137,4.7442774725,-5.84451324954,-0.341668204441,-0.469308701367,-0.595068492125,35.5799329803,-10.4727112984,25.3731723029,0.412384222199,-0.758039868809,-0.793912361845,722.5,52.3333026525,4.8669690925,11.15420227,1,0,0,0,0,0,0,0,-0.222490726708,0.394591348118,-0.169584984404,-0.156653751701,-0.0451823167849,0.108814693867,-0.00823819884388,-0.0457895741239,0.0711419573812
2018-06-19 14:00:19.500,-7.86957596829,3.79485865108,-6.51059772834,-1.77629227444,0.748132124939,0.481809242081,39.0225513895,1.08295634639,19.4026037574,0.0872598674478,-0.360438386336,-0.360336734876,682.0,52.333310795,4.866969045,11.47074585,1,0,0,0,0,0,0,0,-0.220919689728,0.259421736457,-0.224660250545,-0.0305094691743,-0.0176183547194,0.170779118714,-0.021653475888,0.0106991692067,0.0591768424249
2018-06-19 14:00:19.750,-8.40549938879,3.36232726665,-6.70619075772,-1.75550050825,0.126750084546,-0.320359277703,39.4054865042,2.8102306766,18.0342024783,-0.171352728346,0.543074832362,0.660676005458,416.0,52.3333189375,4.8669689975,11.78728943,1,0,0,0,0,0,0,0,-0.225404003395,0.22543490893,-0.243899144592,0.151583051332,-0.0237276979398,0.122798317437,0.0139108343454,-0.115803713765,0.0429223402372
2018-06-19 14:00:20.000,-6.20527647341,3.6899719922,-6.45279902267,-0.051406900961,-1.2853422157,-0.116906820557,34.3448085858,-5.99702345218,21.5560402008,-0.472552178564,0.836604622576,0.871586946001,409.0,52.33332708,4.86696895,12.10383301,1,0,0,0,0,0,0,0,-0.214615080427,0.322847046695,-0.199298397407,0.163236187564,-0.0370688383339,-0.0202913869827,-0.000875083562352,-0.126191935665,0.0123788986949
2018-06-19 14:00:20.250,-2.82574277665,4.90717758697,-6.13061502039,1.19851054998,-1.60761523508,0.465002480719,30.2809216725,-12.7604758148,22.7322641216,-0.434681512384,0.0484750115931,-0.181296910371,335.0,52.33333902,4.86696673,12.4325378425,1,0,0,0,0,0,0,0,-0.191668419917,0.430413875796,-0.134315137103,-0.055800842688,-0.0463859395076,-0.0694995157136,-0.0383597032185,-0.031638629731,0.0201347527951
2018-06-19 14:00:20.500,-3.75337660951,5.42363261591,-5.84894446039,0.26114418433,-0.98367220302,0.073986427418,33.8990676305,-13.4531809928,22.2142743105,0.115599123183,-0.434471359411,-0.911474926138,416.0,52.33335096,4.86696451,12.761242675,1,0,0,0,0,0,0,0,-0.199484079722,0.438543315475,-0.143559070667,-0.157319435773,-0.0246243776463,0.0410505991537,-0.0329646125013,-0.0233680459008,0.0469609660416
2018-06-19 14:00:20.750,-6.60677925817,4.52999303963,-6.05476356943,-1.23353304826,0.668487746689,-0.53471148487,37.8345691798,-9.06363926265,22.243462711,0.319298711381,-0.157774160926,-0.859531493549,752.0,52.3333629,4.86696229,13.0899475075,1,0,0,0,0,0,0,0,-0.217201960941,0.367921012421,-0.193783485646,-0.0921310631816,-0.0214815667642,0.151975053158,0.0119220230631,-0.0726172340144,0.0488369618342
2018-06-19 14:00:21.000,-7.67183533501,4.16829994705,-6.65607468042,-1.76231733371,1.23001066527,-0.597367286639,39.6037463089,-1.89803357577,21.9861048768,0.0580545161976,0.371351095122,0.112534502616,960.0,52.33337484,4.86696007,13.41865234,1,0,0,0,0,0,0,0,-0.226453619048,0.299687230786,-0.236913206513,0.0718062656326,-0.0372256409894,0.150291782304,0.0333582350814,-0.110322626431,0.0587527445084
2018-06-19 14:00:21.250,-7.3768950903,4.58810128097,-6.54587680963,-0.659988143996,-0.621203756751,1.00422136456,38.3107746168,-4.02308137392,24.4821701982,-0.234770707339,0.74295349525,1.26515263022,665.0,52.333392435,4.86695818,13.483120725,1,0,0,0,0,0,0,0,-0.230855298984,0.32794732792,-0.249283789086,0.236742204579,-0.00939636491734,0.0108006321637,-0.0339854366287,-0.0263173758434,0.043053008078
2018-06-19 14:00:21.500,-4.11412157652,4.8055607657,-5.82509273144,0.799774489945,-1.54718749116,1.16710504828,32.905570943,-15.6045926104,28.7846517805,-0.260301388621,0.150951974908,0.537393799024,490.5,52.33341003,4.86695629,13.54758911,1,0,0,0,0,0,0,0,-0.212070046474,0.452916565712,-0.180922349364,0.0543317250131,-0.0197641232589,-0.0857556939061,-0.0566644477458,0.0233649259202,0.0260367719029
2018-06-19 14:00:21.750,-1.7195273044,4.95127787497,-5.74054527724,-0.294935557714,-0.55057214169,0.79154711144,32.5888420379,-17.6962488487,28.5376191659,0.374476439255,-0.668025887987,-0.900724954402,727.0,52.333427625,4.8669544,13.612057495,1,0,0,0,0,0,0,0,-0.193834880052,0.495681959362,-0.143039668885,-0.198103846637,-0.0407575919385,-0.00931964587504,-0.0398636441611,0.0602992721221,0.0550889343608
2018-06-19 14:00:22.000,-5.01252593099,4.15002671286,-6.12682732825,-1.43477547468,0.133391866078,-0.688773021683,38.5427983597,-6.72112478231,24.7207859557,0.895560641701,-0.532999707192,-0.778601440504,1038.0,52.33344522,4.86695251,13.67652588,1,0,0,0,0,0,0,0,-0.20641688913,0.3662576448,-0.203072881549,-0.138404706832,-0.0416527074118,0.12976889562,0.0149722458916,-0.0650204777381,0.10316322683
2018-06-19 14:00:22.250,-8.79954599292,3.037669816,-7.15602192546,-0.806964503249,0.250529652451,-0.914667653128,43.0346814343,1.51786586694,23.3810466053,0.344594956649,0.233097957364,0.265929298584,962.0,52.3334647275,4.86695165,13.6890991225,1,0,0,0,0,0,0,0,-0.241365387881,0.25427471849,-0.287041046949,0.0748074921166,-0.0229564643167,0.137969754521,0.0219631224633,-0.153295807502,0.0891347322321
2018-06-19 14:00:22.500,-7.81722415182,3.39519665874,-8.35686490947,-0.813337848614,-0.0886633849664,0.0257787237042,40.922898497,-1.98856791532,27.8445786653,-0.58025380074,1.03102306678,0.923720679673,480.5,52.333484235,4.86695079,13.701672365,1,0,0,0,0,0,0,0,-0.272179380515,0.30878411335,-0.31301265218,0.200753883657,-0.0408363711652,0.0303081340634,0.015682056044,-0.129144331723,0.0219985390765
2018-06-19 14:00:22.750,-3.2622023256,3.97957287855,-7.11680028489,-0.0228631815049,-0.739021085318,1.34302431,33.1836879979,-11.9396518492,34.8130662687,-0.750663692578,0.606556411706,0.383775157896,503.0,52.3335037425,4.86694993,13.7142456075,1,0,0,0,0,0,0,0,-0.236997473613,0.440482777556,-0.234611186197,0.0565467085865,-0.0715908335507,-0.110090758436,-0.0249993239045,0.0241371776528,0.00747908230265
2018-06-19 14:00:23.000,-1.03953913985,4.42245431697,-5.24330295543,0.787262111626,-0.738589663027,1.35491629599,31.4549547342,-16.8333684343,36.4915302362,0.257811003383,-0.674905321121,-0.548565830526,417.0,52.33352325,4.86694907,13.72681885,1,0,0,0,0,0,0,0,-0.200651215184,0.499060764826,-0.173267882924,-0.174791074395,-0.0625008719505,-0.0987428731232,-0.0567566301266,0.116497257936,0.073644779009
2018-06-19 14:00:23.250,-4.70143897306,4.94965165868,-6.74387575862,-0.770309857131,-0.128937259809,0.0290415708059,36.1837300445,-12.020662335,34.3363203903,1.04635414771,-0.578251979349,-0.442860659193,851.0,52.3335425375,4.866943795,13.5275543225,1,0,0,0,0,0,0,0,-0.238150729426,0.453486177354,-0.23592784299,-0.104280803955,-0.06556595194,0.0548112601169,0.0119011442613,0.00535190328666,0.0957761717603
2018-06-19 14:00:23.500,-7.75078245102,4.19906015088,-9.34585831859,-1.8245492738,0.647036899602,-0.255618908886,37.3882961763,-5.14385176255,34.4080960205,0.0626810120707,0.192725412341,0.078167828906,765.5,52.333561825,4.86693852,13.328289795,1,0,0,0,0,0,0,0,-0.290775219722,0.377793521235,-0.321988949484,0.0406575995082,-0.0956579929608,0.0965869294223,0.0707357657111,-0.0689702748332,0.0280061790325
2018-06-19 14:00:23.750,-5.68288890811,3.36114588259,-8.79986025839,-1.41931106642,0.623899952337,-1.17357982381,35.6242676091,-6.34249640736,34.2064523651,-0.916807822545,0.417522347551,0.517420614033,380.0,52.3335811125,4.866933245,13.1290252675,1,0,0,0,0,0,0,0,-0.27194252832,0.374309509196,-0.296388241174,0.0477879404408,-0.114725984273,0.0272758434577,0.0993160587309,-0.154147546636,0.00473557274413
2018-06-19 14:00:24.000,-2.80094769201,3.81908097655,-5.88764530735,0.0176831822628,-0.912072009542,1.03067654256,30.2873417792,-14.8244650122,32.9710841556,-0.399526949996,0.453519174856,0.582175433759,506.0,52.3336004,4.86692797,12.92976074,1,0,0,0,0,0,0,0,-0.191324340604,0.449762933854,-0.201780619474,0.0584490834247,-0.0571812567634,-0.128419734542,-0.00356457641185,0.0191870489295,0.00858541023395
2018-06-19 14:00:24.250,-2.05708904054,4.84282774702,-5.24562367624,1.33894653379,-1.79535544783,0.288986082052,26.3136378607,-19.0009258465,33.2301007309,0.316479697303,-0.289048972563,-0.226059944491,408.0,52.33360712,4.866926015,13.2382019025,1,0,0,0,0,0,0,0,-0.173038401436,0.507707629392,-0.152626609139,-0.102902109854,-0.0733948341767,-0.123340881517,0.00765438585623,0.0114294633159,0.0391777114931
2018-06-19 14:00:24.500,-3.51102225711,5.1055398091,-7.59311407504,-0.40567268861,-0.399804870843,0.830937843692,32.2044891294,-13.9629799003,31.6047681811,0.587170538065,-0.969784433346,-0.694955744454,792.0,52.33361384,4.86692406,13.546643065,1,0,0,0,0,0,0,0,-0.217049214795,0.483047766175,-0.21526286642,-0.181893623926,-0.0605529845645,0.0161034783734,-0.00012445746804,0.0798940884624,0.0553632885752
2018-06-19 14:00:24.750,-6.2837225684,3.67712674691,-8.50654448661,-1.97658150253,0.934388417819,-0.55013358353,38.1482547902,-6.50397345549,27.4027140386,0.206788748194,-0.212191593537,-0.278530798166,823.5,52.33362056,4.866922105,13.8550842275,1,0,0,0,0,0,0,0,-0.240237265582,0.36954861842,-0.27923016945,-0.056634756424,-0.05450176761,0.119759080332,0.0648044444959,-0.0794366089127,0.0381009329814
2018-06-19 14:00:25.000,-7.36408750109,3.24190732126,-7.91717780557,-0.763540009395,0.15026530533,-0.867972130954,37.2855927254,-4.70360069636,26.5400497621,-0.595291756187,0.703016075473,0.356339976987,334.0,52.33362728,4.86692015,14.16352539,1,0,0,0,0,0,0,0,-0.236383721674,0.326091072552,-0.290614191934,0.0898522818529,-0.0488364719491,0.04864800201,0.0705889970692,-0.163627819301,0.00390212630361
2018-06-19 14:00:25.250,-4.5898669146,4.71119116732,-7.60692987714,-0.0912573375619,-0.874788631548,1.20157586829,33.0181706117,-11.544794957,29.878948568,-0.556274128607,0.695823094362,0.641184648733,465.0,52.3336275925,4.8669211075,13.95925598,1,0,0,0,0,0,0,0,-0.220124834728,0.436275371997,-0.249076082458,0.115506145532,-0.0419291930862,-0.0824925000078,-0.0012863564469,-0.00107460632998,-0.00564148260481
2018-06-19 14:00:25.500,-1.4644914691,5.09597719391,-6.48335681974,-0.148204081774,-0.372860283209,0.716422576932,28.0562951233,-18.4408914821,31.5402971714,-0.0984910577139,0.232010866837,0.0881667732269,401.0,52.333627905,4.866922065,13.75498657,1,0,0,0,0,0,0,0,-0.185605861803,0.516402161345,-0.1760772108,-0.0236814339888,-0.0727209776364,-0.106790967577,0.0242368150027,0.0142186543145,0.00580591759715
2018-06-19 14:00:25.750,-2.01660100991,5.41876767656,-6.47401941224,-0.0329189312353,0.0385050525434,-0.299317649833,27.8453352376,-18.1304934653,31.0983124161,-0.0764776939845,-0.0482977413783,-0.233203925828,715.5,52.3336282175,4.8669230225,13.55071716,1,0,0,0,0,0,0,0,-0.184248555778,0.51704941048,-0.165789608942,-0.0857343497262,-0.0891588563413,-0.0523491545336,0.060928236199,-0.0414905437169,0.0191002269605
2018-06-19 14:00:26.000,-2.7702821757,6.22424060698,-7.73402465838,-0.169034178757,0.0202892676291,-0.190358788335,28.4793916684,-17.7048035206,32.3754871659,-0.0416563332684,-0.000695129212313,-0.000984273398113,992.0,52.33362853,4.86692398,13.34644775,1,0,0,0,0,0,0,0,-0.211235891974,0.538166805435,-0.191373736732,-0.0411793153515,-0.100648964423,-0.0391991650751,0.0685507647626,-0.042659772043,0.0177173684837
2018-06-19 14:00:26.250,-2.17483176612,5.90756464877,-7.07584269875,-0.00448276011503,0.430222908444,0.127718738469,25.9060770149,-19.394930261,32.9891280257,0.00136249124549,-0.0130820129011,-0.0949877083384,952.0,52.3336289325,4.866926935,13.3485687225,1,0,0,0,0,0,0,0,-0.193320735692,0.545866284529,-0.168098071119,-0.0559830776268,-0.104544229627,-0.0647242261112,0.0665746211195,-0.00513988241605,0.00879595364539
2018-06-19 14:00:26.500,-3.11120975781,6.10169215626,-5.99488254955,0.244712751185,-0.168357485706,0.717767343554,26.1897300412,-19.3068322992,31.6121466074,0.177244288145,-0.156222371061,0.040986026889,899.0,52.333629335,4.86692989,13.350689695,1,0,0,0,0,0,0,0,-0.177559016592,0.529922680509,-0.160154588138,-0.0298016513648,-0.0677562612894,-0.0649111041386,0.0325103351687,0.0506719930973,0.018948935388
2018-06-19 14:00:26.750,-3.58864711272,6.28974949806,-6.42600862576,-0.0582892832037,-0.425030773708,1.85247976644,28.9298160046,-17.0551073848,30.3756921495,0.631736119051,-0.419075189703,-0.0224288317332,851.5,52.3336297375,4.866932845,13.3528106675,1,0,0,0,0,0,0,0,-0.187439650351,0.515906591573,-0.183948560173,-0.0325287257313,-0.035635003942,-0.0455963415359,-0.0182738158836,0.141269095377,0.0382577647907
2018-06-19 14:00:27.000,-3.92964659358,5.17014646696,-7.23051834359,-1.23484104038,1.26232673052,0.396136302566,32.7964056327,-10.0072041587,28.2923977731,0.59727370989,-0.640077042699,-0.473568036179,775.0,52.33363014,4.8669358,13.35493164,1,0,0,0,0,0,0,0,-0.202285909827,0.437830352327,-0.214813578216,-0.117910555588,-0.0637129715743,0.066062221402,0.0397060863063,0.0441927570459,0.0612846279772
2018-06-19 14:00:27.250,-6.15804678489,4.13024283271,-6.89341238627,-1.40378708661,1.47344652821,-0.0639932763155,37.1021685701,-2.78764457479,25.7664256077,0.333103004281,-0.488729804086,-0.0724413688231,665.0,52.3336305475,4.8669406175,13.4502990725,1,0,0,0,0,0,0,0,-0.208048608764,0.333376225797,-0.254879462898,-0.0449194390575,-0.0406461831232,0.115270072851,0.0428282894346,-0.00776729010033,0.0766731778602
2018-06-19 14:00:27.500,-7.36486499003,3.21496384137,-5.64142013801,0.0773789911392,0.491909481418,1.32056484034,38.9571432866,-0.902303626126,22.4292746768,0.594642006645,-0.130871995361,0.43060347909,453.0,52.333630955,4.866945435,13.545666505,1,0,0,0,0,0,0,0,-0.185671816617,0.27581183191,-0.260322304836,0.0723253198441,0.0297589694442,0.0462322736258,-0.0418155059208,0.0538801562139,0.0854641911911
2018-06-19 14:00:27.750,-7.34750370216,3.27605230871,-6.27559920163,-0.38615740827,1.10550743762,0.311625661844,40.4721542112,-0.678735820005,19.7406634311,0.612038129366,0.280706980112,0.612720201154,324.0,52.3336313625,4.8669502525,13.6410339375,1,0,0,0,0,0,0,0,-0.194324577508,0.271522162234,-0.266808375622,0.119079716638,0.0234457177256,0.0742400294879,0.0018950183305,-0.0550100634085,0.0787031709688
2018-06-19 14:00:28.000,-6.89026816252,4.26505105695,-7.52935913676,-1.90008850718,1.67769923894,1.03552090887,40.272782203,-3.61272669656,22.3342003244,0.191070588672,0.188511115318,0.723384558579,302.0,52.33363177,4.86695507,13.73640137,1,0,0,0,0,0,0,0,-0.224266132336,0.329125453113,-0.283779674317,0.125648643307,0.0146207369526,0.0918201163944,0.0079904256419,0.0170000560913,0.0432870479493
2018-06-19 14:00:28.250,-6.65192036832,4.23807123676,-7.01156541776,-2.26619165804,1.94100564007,0.655940083978,39.1528912208,-7.51036350897,24.0207054716,0.360167852511,-0.247274175741,0.483112320259,285.0,52.3336324125,4.86695983,13.9791076675,1,0,0,0,0,0,0,0,-0.221452836729,0.359264339697,-0.264716622471,0.0534667326381,0.0126050456148,0.11657172001,0.0252201974645,0.0267372073417,0.0442917588215
2018-06-19 14:00:28.500,-7.67526291598,4.2548720293,-7.4858776636,-2.84839409806,1.49709315647,-0.184925677744,38.5943294642,-10.6105412442,22.8972303318,0.452387385845,0.227003852223,1.18554483072,266.0,52.333633055,4.86696459,14.221813965,1,0,0,0,0,0,0,0,-0.232099919342,0.371724466198,-0.270156887921,0.175306894229,0.0145785309977,0.114980108043,0.0728812376027,-0.0726171852941,0.016671688084
2018-06-19 14:00:28.750,-5.50797848289,4.29122116344,-7.90381122866,-1.47946006847,-0.870502212722,1.70957720514,30.4953928929,-22.9542536386,26.186269473,-0.292510664893,0.409609748436,1.7459097167,248.0,52.3336336975,4.86696935,14.4645202625,1,0,0,0,0,0,0,0,-0.222785913432,0.492377132069,-0.220793711904,0.224026242522,0.0272605879009,-0.08994441806,0.0146851260264,0.0429413044784,-0.072710078355
2018-06-19 14:00:29.000,-1.62671933374,3.75338600356,-6.22156652008,0.72832794849,-1.4815032792,2.00418925285,21.5617669595,-35.932975597,25.9811029144,-0.268771926143,-0.82327592143,0.0875695397367,273.5,52.33363434,4.86697411,14.70722656,1,0,0,0,0,0,0,0,-0.158468426752,0.604735623569,-0.0902868720529,-0.124796456633,0.0313766373576,-0.171476015394,-0.0216748521076,0.142107079129,-0.0960882184582
2018-06-19 14:00:29.250,-3.27552534867,4.0501673757,-6.11524430607,-0.414821463317,0.0123164277453,-0.399914891074,25.7207689828,-34.1426100842,18.9997965688,0.630972601473,-1.40860063022,-1.04918824667,505.0,52.3336348875,4.86697831,14.8683135975,1,0,0,0,0,0,0,0,-0.152003862143,0.57116615508,-0.0785564992948,-0.286295357574,0.0409250460909,0.036738278053,0.0567576285222,-0.00320591516941,-0.0532207513931
2018-06-19 14:00:29.500,-7.57549853178,3.55300802498,-7.58956335826,-1.68570083876,-0.0966670406563,-1.14591385338,34.8930852646,-27.5811374198,15.7441548837,0.434778384697,-0.423228654486,-0.0855503446691,579.0,52.333635435,4.86698251,15.029400635,1,0,0,0,0,0,0,0,-0.206460211818,0.477623543186,-0.178520756169,-0.049888052169,0.0823166276891,0.124143456922,0.080631753918,-0.14820529621,-0.0650737037109
2018-06-19 14:00:29.750,-8.6399017681,2.23803681336,-7.85781959524,-0.91853132497,-0.816907249981,-1.2120740928,36.0032520098,-28.5441992393,15.4454546376,-0.49836596926,0.880142174418,0.865346030613,389.0,52.3336359825,4.86698671,15.1904876725,1,0,0,0,0,0,0,0,-0.220180490132,0.446640321936,-0.206861342272,0.158921863165,0.102476069267,0.0300639725806,0.0796178684075,-0.254317602534,-0.127391469304
2018-06-19 14:00:30.000,-5.2448707266,2.94359526937,-7.37994600445,0.331381430729,-1.58509063024,0.710752363281,28.3108956358,-37.222603248,15.1549992621,-0.740254430372,0.89209236207,0.717452217991,325.5,52.33363653,4.86699091,15.35157471,1,0,0,0,0,0,0,0,-0.178479474612,0.550734100883,-0.128629829526,0.121504357471,0.111204645722,-0.121265485339,0.0190327658613,-0.107457759585,-0.173475383367
2018-06-19 14:00:30.250,-1.44820876526,4.33428245903,-6.47733190904,1.22136103566,-2.43401556912,0.892279082668,22.7076846205,-44.0455049524,13.6304111404,-0.286044743446,-0.592704840703,-0.538253270802,284.0,52.3336369275,4.8669949025,15.4723785425,1,0,0,0,0,0,0,0,-0.132912075522,0.654022707797,-0.0287864018322,-0.185364893865,0.104774617857,-0.13628848705,-0.00955507503683,0.000672516125557,-0.141183392709
2018-06-19 14:00:30.500,-4.01058276803,4.36097320946,-5.85341991587,-0.26946897114,-1.21605212752,-1.19365934302,28.019243756,-38.511792515,9.58429430561,0.444997937702,-1.04081382325,-1.28608295388,471.0,52.333637325,4.866998895,15.593182375,1,0,0,0,0,0,0,0,-0.13402349634,0.579607034185,-0.0453498971352,-0.279502823677,0.11069029035,0.066207575419,0.0589960124154,-0.116545175459,-0.0864732262929
2018-06-19 14:00:30.750,-8.92214987285,3.32297513971,-6.8653160587,-1.87542387592,0.0229137524242,-1.62608986272,34.8171186804,-30.3553793827,10.9066795679,0.45953492192,0.230140730233,-0.0545034710639,687.0,52.3336377225,4.8670028875,15.7139862075,1,0,0,0,0,0,0,0,-0.187606552208,0.465837200219,-0.157292562666,0.028358337319,0.118499729403,0.143999223887,0.105793322675,-0.223765078838,-0.0979511621697
2018-06-19 14:00:31.000,-8.15985157171,2.74797131339,-8.01087424844,-0.532429317226,-0.904179260306,-1.15562913002,32.7134568627,-32.1149399331,14.9926873855,-0.488418981673,1.00257898574,1.08176516257,435.0,52.33363812,4.86700688,15.83479004,1,0,0,0,0,0,0,0,-0.214255258055,0.487047598276,-0.18083850199,0.190069311608,0.0975755259548,-0.00850716606458,0.0939283520326,-0.256413161796,-0.145166826745
2018-06-19 14:00:31.250,-3.77792012263,3.79385167654,-6.9507193065,0.970583883569,-1.85778638443,0.774284248337,24.9628090789,-39.275387082,14.0886739452,-0.65024632618,0.553282228768,0.378031717627,417.0,52.3336382075,4.867010505,15.88621216,1,0,0,0,0,0,0,0,-0.155986785591,0.590493882816,-0.081331473255,0.0422051405403,0.102700044715,-0.144648060787,0.0169514355733,-0.0766197253602,-0.16156375037
2018-06-19 14:00:31.500,-1.70982120005,4.20223835146,-5.55946372935,0.790572953882,-1.75439239649,0.287972768175,21.1319660548,-42.3182041214,15.4206453714,0.348756269262,-0.528471987703,-0.869686411812,367.0,52.333638295,4.86701413,15.93763428,1,0,0,0,0,0,0,0,-0.121675483184,0.634348983826,-0.0178413861064,-0.20544917424,0.0753795967837,-0.101995227139,0.0310631452802,-0.0197184547077,-0.112816903041
2018-06-19 14:00:31.750,-5.25371212583,3.31955082178,-6.98040452616,-0.908897034408,-0.677447734234,-1.63177134935,27.7982625043,-34.8017288585,18.7303906295,0.733152332314,-0.807540297078,-0.897919191292,656.0,52.3336383825,4.867017755,15.9890564,1,0,0,0,0,0,0,0,-0.184053081761,0.550625328609,-0.108027592856,-0.210769155879,0.0427939638039,0.0660254798517,0.110629258597,-0.146758782096,-0.0734265194367
2018-06-19 14:00:32.000,-9.51229954776,3.23793460631,-8.67350133819,-2.04069187782,0.177117874392,-1.17438736148,34.2853853364,-26.3942727922,18.5407081203,-0.0518622654177,0.46294109736,0.412415812496,618.0,52.33363847,4.86702138,16.04047852,1,0,0,0,0,0,0,0,-0.244245835532,0.458258551854,-0.22091114794,0.100618804211,0.0629826543635,0.108132003997,0.121297297776,-0.196769261968,-0.111042227447
2018-06-19 14:00:32.250,-6.75560936569,3.31762337692,-7.30422368732,0.152590357668,-0.960429183473,0.759274912833,27.7744275463,-32.5708040329,19.0325435746,-0.760384401754,0.914065973359,0.991182423844,299.5,52.333637525,4.867025715,16.0457122825,1,0,0,0,0,0,0,0,-0.199697297995,0.516730017,-0.157513164283,0.178208820169,0.0846449372764,-0.0982380233826,0.0423701103732,-0.0799583535285,-0.154102380753
2018-06-19 14:00:32.500,-2.1868792863,3.4814113585,-5.07073451151,1.7532340587,-2.09922095853,1.06312092786,21.652011586,-41.0960620913,18.1163904717,-0.3025414795,-0.457605069847,-0.290224306135,197.0,52.33363658,4.86703005,16.050946045,1,0,0,0,0,0,0,0,-0.129765059429,0.606334431768,-0.0349917640259,-0.138488807708,0.0926422255031,-0.167146787482,-0.010128161205,0.0301104425413,-0.119979450172
2018-06-19 14:00:32.750,-4.41720527068,4.055614561,-4.82544641563,-0.468728471357,-1.07399815378,0.0112575549904,30.7746382561,-33.6250620161,13.9223060418,0.610604679468,-1.12307452797,-1.21531324752,427.0,52.333635635,4.867034385,16.0561798075,1,0,0,0,0,0,0,0,-0.143485177898,0.535178443949,-0.0739602480576,-0.256236125802,0.123395324297,0.0598108918353,0.00832705179843,-0.00145046456292,-0.0434634767023
2018-06-19 14:00:33.000,-9.59709411303,3.42720824375,-6.51018628835,-2.29847653717,0.35432410412,-1.61074216702,39.9823237051,-22.8817705003,12.9214670126,0.358084486167,0.0748621791006,-0.136202615188,560.0,52.33363469,4.86703872,16.06141357,1,0,0,0,0,0,0,0,-0.211057041385,0.405572482395,-0.197684999795,0.0161641308151,0.120667687971,0.196509725002,0.090174603646,-0.203686695115,-0.0456251661006
2018-06-19 14:00:33.250,-9.19600773705,2.79441622554,-7.4712910583,-0.792368687641,-0.237333250801,-0.464941352017,33.0882709677,-28.2427749194,15.3412541348,-0.579297546787,1.1564996105,1.10761290748,358.0,52.3336333525,4.8670437825,16.08736877,1,0,0,0,0,0,0,0,-0.216684251326,0.445088755569,-0.192658439991,0.233541353126,0.106088281584,0.00822654278345,0.0833215373539,-0.194309239373,-0.140295639452
2018-06-19 14:00:33.500,-3.77398838567,3.57330562243,-5.87657353412,1.61102291192,-2.16383484431,1.88222950933,24.2582047431,-39.7633152334,16.8992155596,-0.433330871726,0.293156587416,0.366363597325,316.0,52.333632015,4.867048845,16.11332397,1,0,0,0,0,0,0,0,-0.152581699355,0.58826911862,-0.0726742490807,0.0314086610243,0.123068690448,-0.184635343228,-0.031563126561,0.0330057469591,-0.143027774125
2018-06-19 14:00:33.750,-2.78839610729,3.94381405604,-4.82438571754,0.721833859894,-1.69652729623,0.159297176404,29.3207938941,-37.162877245,15.7157342809,0.426420123789,-1.01986813368,-1.17078480693,280.0,52.3336306775,4.8670539075,16.13927917,1,0,0,0,0,0,0,0,-0.145372576036,0.576444955832,-0.0538689588137,-0.27099092351,0.118886894626,-0.0233653899115,-0.0111298865788,-0.00785786517277,-0.0490784150538
2018-06-19 14:00:34.000,-8.25903909576,3.34418142553,-6.28486274923,-2.33760421803,0.815721249165,-1.89310069181,38.26638284,-26.3796733035,13.6627719117,0.424689871049,-0.364448987085,-0.728710714302,440.0,52.33362934,4.86705897,16.16523437,1,0,0,0,0,0,0,0,-0.206364729369,0.440788868456,-0.166042493894,-0.109373024218,0.110455552436,0.206496875562,0.102245996803,-0.190178413781,-0.0469594190085
2018-06-19 14:00:34.250,-10.2642272969,3.15092606598,-7.18942018111,-1.77594810906,0.290492815206,-1.15552763838,37.7039337517,-25.3150775269,15.5676157194,-0.251094036193,1.03133166637,1.05805997218,294.5,52.333628725,4.8670638425,16.319302365,1,0,0,0,0,0,0,0,-0.235860695616,0.417825063754,-0.218789762993,0.232403779049,0.115115069836,0.0954634769469,0.10124284124,-0.230567072754,-0.101302329121
2018-06-19 14:00:34.500,-5.48775180832,3.75583394457,-6.03610516556,1.19896811962,-2.19198729909,2.95313438716,30.0850236499,-32.8964015909,19.2238561777,-0.261273268821,0.630555047531,0.914745586797,229.0,52.33362811,4.867068715,16.47337036,1,0,0,0,0,0,0,0,-0.186845980925,0.532056157883,-0.141343240985,0.162505236218,0.147286852216,-0.170681684414,-0.0787692323949,0.0931791935191,-0.106603856153
2018-06-19 14:00:34.750,-2.52099893775,3.74393792139,-5.18043923154,0.85334303138,-1.65986070478,0.754941081985,26.813049835,-36.3097188421,18.0452375038,0.329040226979,-0.848804501241,-0.916670498642,162.0,52.333627495,4.8670735875,16.627438355,1,0,0,0,0,0,0,0,-0.152994409638,0.574557061427,-0.0596688179846,-0.227571271085,0.098399904055,-0.0718448964013,-0.0115018543856,0.034199700978,-0.0609764323325
2018-06-19 14:00:35.000,-6.27244809043,2.67058291693,-6.411013535,-1.81598738599,0.381696772857,-1.38330359552,33.7997101913,-29.6889253598,14.1568719094,0.293882098725,-0.855895574556,-1.03752178811,193.0,52.33362688,4.86707846,16.78150635,1,0,0,0,0,0,0,0,-0.193693154328,0.469538715622,-0.128620409321,-0.218413628372,0.0997139801583,0.142923516242,0.0886840382955,-0.125660237656,-0.0661191889306
2018-06-19 14:00:35.250,-10.2031509811,2.52028106442,-7.49647107327,-2.0784841352,0.250497898851,-1.4219191401,40.1651769373,-22.9058575183,13.6687515055,-0.30742840083,0.681135903353,0.689655519751,162.0,52.333626565,4.8670838175,16.586254885,1,0,0,0,0,0,0,0,-0.243630147595,0.384813695532,-0.226912316469,0.150783370001,0.126204325707,0.134601171989,0.0976111615476,-0.241148947029,-0.0899949514672
2018-06-19 14:00:35.500,-7.30947465658,3.37596168552,-6.18391497812,0.548320777018,-1.44075832362,1.51925146816,34.4646935798,-28.8429732398,16.3283773459,-0.442084130092,1.04990234029,1.09037208683,91.0,52.33362625,4.867089175,16.39100342,1,0,0,0,0,0,0,0,-0.205097606751,0.469302396325,-0.171867839098,0.224535910847,0.154629694166,-0.0902589008557,-0.028131120447,-0.0443406803642,-0.102812515465
2018-06-19 14:00:35.750,-2.53010349886,3.60145711191,-5.1690828542,1.65684692291,-1.993047696,1.47932159427,27.097108313,-36.682141556,17.3091634558,-0.0926136079307,-0.502608607947,-0.516416253775,72.0,52.333625935,4.8670945325,16.195751955,1,0,0,0,0,0,0,0,-0.155231796635,0.570933772298,-0.0609858188741,-0.152596465536,0.122820384822,-0.13126141943,-0.0456643792812,0.0558939773859,-0.0797874168023
2018-06-19 14:00:36.000,-4.53110044594,3.43994457457,-6.04049366628,-0.892312697477,-0.370918120875,-0.644902191929,32.2706188335,-30.6544281866,13.7662477983,0.153141898128,-1.16271743447,-1.30339048129,90.0,52.33362562,4.86709989,16.00050049,1,0,0,0,0,0,0,0,-0.18070430525,0.502317151216,-0.0957811695114,-0.288101245285,0.10679641769,0.0913436727341,0.0452095619006,-0.0546203430902,-0.054482996311
2018-06-19 14:00:36.250,-10.0197751649,3.33866047716,-6.45213483482,-2.59078812194,0.825192330503,-1.87141932692,40.5156534889,-22.841912772,9.89751474009,-0.0588410412347,0.289507108335,0.100573629734,81.0,52.33362539,4.86710536,16.02671509,1,0,0,0,0,0,0,0,-0.221622096118,0.38404463858,-0.19139402583,0.0586512823737,0.142808074255,0.20878627859,0.110088178268,-0.235764671048,-0.0689919463643
2018-06-19 14:00:36.500,-9.15565209736,3.44252224312,-6.0776701882,-0.256762458555,-0.72431790915,0.552974663545,35.9671353747,-27.6461790887,11.5869567619,-0.542378855149,1.16961285606,1.17907133545,47.5,52.33362516,4.86711083,16.05292969,1,0,0,0,0,0,0,0,-0.20532087879,0.430929244529,-0.172704308139,0.261491747478,0.175107020598,-0.00589724044717,0.0179711511726,-0.122085779667,-0.116453414202
2018-06-19 14:00:36.750,-3.32033896706,3.95971587812,-5.53871217937,2.00771963825,-2.20739883505,1.80461601184,27.1374663742,-34.9677561443,14.1106345798,-0.334670295876,-0.0895138756431,-0.0608427101006,44.0,52.33362493,4.8671163,16.07914429,1,0,0,0,0,0,0,0,-0.156943594287,0.552126120401,-0.0657895680499,-0.0513960624511,0.140874554872,-0.151114301034,-0.0518516700638,0.0449660824791,-0.0955136153899
2018-06-19 14:00:37.000,-3.48053744228,3.97013828586,-4.86778167279,-0.0732735793361,-0.644487318709,0.200802688534,30.1164775843,-31.2495716862,10.798089099,0.445419000259,-1.04192937767,-1.37687940191,71.0,52.3336247,4.86712177,16.10535889,1,0,0,0,0,0,0,0,-0.144248166724,0.511287810251,-0.0517852974754,-0.277161247603,0.129726696906,0.041748641828,0.007949837451,0.006570385906,-0.0412945964784
2018-06-19 14:00:37.250,-9.59499390276,3.36893959017,-5.50900417734,-2.89463435513,1.12196908324,-1.79253970874,38.1659987354,-22.5820143058,7.47556220029,0.39548116234,0.100358739072,-0.245859941406,110.0,52.3336247,4.86712809,16.14805298,1,0,0,0,0,0,0,0,-0.191724241444,0.373606154188,-0.154060029896,0.0116139837855,0.145524148107,0.226671105861,0.118374076713,-0.202079876227,-0.056224276704
2018-06-19 14:00:37.500,-10.1258265265,3.39164473746,-6.64299792319,-0.894015086916,-0.335334044825,-0.102834570675,35.6816796299,-25.2760877782,9.33075296478,-0.223667798413,1.16659148432,1.38178305336,87.0,52.3336247,4.86713441,16.19074707,1,0,0,0,0,0,0,0,-0.211745914422,0.401539649302,-0.1792352496,0.294389483159,0.164989474845,0.0396179619586,0.0623963527168,-0.171352449093,-0.1112228035
2018-06-19 14:00:37.750,-4.27072026339,3.78966444981,-5.86892004905,2.08175641133,-2.34503030025,1.8773499283,26.5021168367,-35.1791314189,11.1494638539,-0.184076839851,0.186141056865,0.411174605072,92.0,52.3336247,4.86714073,16.23344116,1,0,0,0,0,0,0,0,-0.156495937803,0.537272019997,-0.0647818346152,0.0394633747646,0.159144973771,-0.161994577904,-0.0431428678863,0.0229097895455,-0.110552980625
2018-06-19 14:00:38.000,-2.97627837029,3.25151264023,-5.12927457205,0.1506331765,-1.24303193043,0.46619368535,27.9456449729,-32.4451684978,8.74853129319,0.281460334094,-1.06237447213,-1.42789516754,147.0,52.3336247,4.86714705,16.27613525,1,0,0,0,0,0,0,0,-0.134049785833,0.507126866623,-0.03054080382,-0.296897803439,0.136931969923,0.00401202390157,0.00324140262823,0.016249092458,-0.0653873625121
2018-06-19 14:00:38.250,-8.4452464393,2.31762423959,-6.63180934267,-2.56870746041,0.683021092074,-2.32221637722,38.1114656496,-21.7727225299,5.09006032873,0.323229842043,-0.252497225032,-0.622243904613,288.0,52.3336254,4.86715405,16.46264343,1,0,0,0,0,0,0,0,-0.194709612481,0.361053610622,-0.142871190145,-0.0955144917061,0.135198868305,0.219765940377,0.128320477813,-0.248740326569,-0.0549143244732
2018-06-19 14:00:38.500,-10.4442433791,2.41226205778,-7.54114495081,-1.24642623221,0.039416710219,0.0383015333708,37.2618754942,-22.3840839093,6.78506687459,-0.281443409287,1.25783505413,1.12216046409,296.0,52.3336261,4.86716105,16.64915161,1,0,0,0,0,0,0,0,-0.219308761664,0.360906909603,-0.193081562133,0.274745568758,0.17237230003,0.0617259008138,0.0635450044445,-0.179995869773,-0.120732444547
2018-06-19 14:00:38.750,-4.86545190301,2.98805683991,-6.10918353838,1.07984216115,-1.571541606,1.80413320016,28.8205151885,-30.2584142913,12.7292798491,-0.502539551837,0.638746320966,0.453092534661,204.0,52.3336268,4.86716805,16.83565979,1,0,0,0,0,0,0,0,-0.173229137015,0.482887764278,-0.0986027522303,0.0867428665283,0.144251992465,-0.137037581733,-0.0223374791273,0.00211950634757,-0.112226177575
2018-06-19 14:00:39.000,-2.22419536912,3.16500216578,-5.345733387,0.562648835442,-1.12011244411,1.52489133908,31.2808936653,-29.8878402437,13.0423657844,0.433312871872,-1.02993904128,-0.96940816423,216.0,52.3336275,4.86717505,17.02216797,1,0,0,0,0,0,0,0,-0.15766178074,0.505214543629,-0.0637242457848,-0.242660147192,0.142691918108,-0.0458070006163,-0.0485565306547,0.0878354743615,-0.0232309375143
2018-06-19 14:00:39.250,-7.55051644692,3.0788549919,-6.67298467729,-1.83510522381,0.736298740509,-1.5836457538,38.9531481499,-21.3256362744,9.80079645518,0.754035233423,-0.634890969847,-0.482364133125,412.0,52.333628465,4.86718201,17.3430603025,1,0,0,0,0,0,0,0,-0.21173750006,0.394345345101,-0.15197705323,-0.110444735243,0.127226280229,0.18749573969,0.0919709501314,-0.167539978125,-0.00193547205862
2018-06-19 14:00:39.500,-10.1097003932,2.5873341558,-7.60405006156,-1.80778575347,0.704260887959,-0.163298597583,37.4760073718,-19.6420978035,13.3652079917,-0.416137822649,0.950047748206,0.781555167578,395.0,52.33362943,4.86718897,17.663952635,1,0,0,0,0,0,0,0,-0.244143627126,0.361506734229,-0.213240879277,0.202467123717,0.126156097682,0.0898853313408,0.0864204066376,-0.149159428009,-0.0919343607566
2018-06-19 14:00:39.750,-5.25547594321,2.51524329126,-6.49985376811,1.09758303861,-1.40426516567,1.1535767013,29.8898363627,-29.8191476934,18.5976273559,-0.734225401738,0.712478532974,0.669008784324,253.0,52.333630395,4.86719593,17.9848449675,1,0,0,0,0,0,0,0,-0.208060265722,0.481897949698,-0.129369263231,0.10295163387,0.114017516283,-0.142729327904,0.00744122597024,-0.0458943778336,-0.102814141289
2018-06-19 14:00:40.000,-2.38839707395,3.31045569898,-5.23085281143,1.39488256377,-1.62395346348,1.6816290968,28.4327706522,-32.8126184498,16.6265137992,0.389272252168,-0.862620319683,-0.746226818762,231.0,52.33363136,4.86720289,18.3057373,1,0,0,0,0,0,0,0,-0.166231145868,0.536163583062,-0.0576355300547,-0.203163738352,0.131039450681,-0.103603102425,-0.0438520599242,0.095329054966,-0.0328906922123
2018-06-19 14:00:40.250,-6.60170222233,3.08082237452,-6.42887126704,-1.67333387708,0.45400677478,-1.42696236626,36.5218447688,-21.0221069343,13.0823539287,0.646068399841,-0.887066788434,-1.03827029539,346.0,52.3336325675,4.8672100925,18.457409665,1,0,0,0,0,0,0,0,-0.212310441856,0.405563745597,-0.138981301426,-0.206783641959,0.0994906253329,0.169155041912,0.0944348013774,-0.123932056701,0.00495735533334
2018-06-19 14:00:40.500,-10.6710335625,2.12423866699,-8.07856135075,-2.2480017323,0.559898681244,-0.983574695541,39.4858263481,-16.6209173364,13.9480505501,-0.346747569968,0.770945232136,0.695805529653,304.0,52.333633775,4.867217295,18.60908203,1,0,0,0,0,0,0,0,-0.265567738604,0.328087801691,-0.236134154185,0.170151098375,0.114280428981,0.13118535934,0.11554334519,-0.204493766693,-0.0722271315504
2018-06-19 14:00:40.750,-6.98306034078,2.68984700434,-6.55629605524,0.62058295607,-1.4479010469,1.40777017557,29.4758196277,-28.2200231287,15.8509138805,-0.630190977924,1.01497813725,1.16180241313,161.0,52.3336349825,4.8672244975,18.760754395,1,0,0,0,0,0,0,0,-0.209846537029,0.450291557183,-0.139597259497,0.215270796589,0.135168737118,-0.127842223361,0.0201346588752,-0.0421177463838,-0.117165704602
2018-06-19 14:00:41.000,-1.85366736439,3.60157456879,-4.88755522447,1.38478551878,-1.55160905982,1.77728744582,25.3106731536,-34.6659425739,15.0981383948,0.17756284245,-0.753342382986,-0.795062490668,171.0,52.33363619,4.8672317,18.91242676,1,0,0,0,0,0,0,0,-0.150507756773,0.551565619725,-0.0257254115783,-0.203473861623,0.130417458058,-0.123778883422,-0.0290590988171,0.106556377495,-0.0542658304066
2018-06-19 14:00:41.250,-5.57707808048,3.14060666699,-6.38312469708,-1.523451069,0.409467101792,-1.22599434386,35.5791732887,-25.412331961,12.5333959508,0.439828487335,-1.03714850143,-1.14498220425,364.0,52.3336374625,4.867239165,19.16166382,1,0,0,0,0,0,0,0,-0.208621416647,0.445825016477,-0.112291560662,-0.247986139085,0.115420010778,0.145492260101,0.0867579193725,-0.103965246299,-0.0108892015456
2018-06-19 14:00:41.500,-11.1310966331,2.82210686504,-7.18759747229,-2.48035098115,0.701178275718,-1.11460873659,39.7932245563,-19.1786817166,12.0990508611,-0.254918736388,0.756237685857,0.87456797854,450.0,52.333638735,4.86724663,19.41090088,1,0,0,0,0,0,0,0,-0.253744618242,0.34509093866,-0.213102912538,0.200974205587,0.143719267391,0.153817115173,0.12169963347,-0.205470639058,-0.0661221914258
2018-06-19 14:00:41.750,-7.42674872089,3.54742336821,-5.57891360867,0.531587099071,-1.36207524982,1.55934045797,30.1185566331,-28.0615480531,14.1769925789,-0.548479260959,0.980611383759,1.12597914542,270.5,52.3336400075,4.867254095,19.66013794,1,0,0,0,0,0,0,0,-0.196963533233,0.450817861436,-0.122679735109,0.226683948969,0.160175109406,-0.102103860772,0.0128563884847,-0.0166721636205,-0.098898464076
2018-06-19 14:00:42.000,-2.00544924498,3.84488877308,-4.85014402035,1.52936881225,-1.90415095809,2.13600896385,26.0040883448,-33.9437169741,13.3448540005,0.0734282599134,-0.749681436268,-0.806571287757,285.0,52.33364128,4.86726156,19.909375,1,0,0,0,0,0,0,0,-0.14866205003,0.545811666731,-0.0212687765395,-0.197740570939,0.15115087302,-0.12689172243,-0.0456664859301,0.12778052361,-0.0504607465174
2018-06-19 14:00:42.250,-5.63787621792,3.36732397718,-5.59390628204,-1.45448609223,0.168279667057,-1.26859172186,34.649909171,-25.6003030588,9.48367602455,0.444725626766,-1.04130461289,-1.15495376422,508.0,52.3336431725,4.867270485,19.5183380125,1,0,0,0,0,0,0,0,-0.186527763236,0.437350206171,-0.0823284209646,-0.244835188634,0.134828658621,0.148382824573,0.0889260551278,-0.103345856588,-0.0071132702872
2018-06-19 14:00:42.500,-11.3417011505,3.34500770646,-6.43849313807,-2.50649702507,0.696549823355,-1.28835813676,38.5813588227,-20.2713430457,8.32905286805,-0.149374942846,0.632589442045,0.640479673039,520.0,52.333645065,4.86727941,19.127301025,1,0,0,0,0,0,0,0,-0.232297187458,0.346697444903,-0.177121210085,0.173549011399,0.16485960418,0.180663964106,0.13124856689,-0.204545218542,-0.0662648846225
2018-06-19 14:00:42.750,-8.03557169403,3.78933870293,-6.20824313147,0.457746575353,-1.33816113359,0.505047960275,30.9466925614,-27.5233735933,10.6036583969,-0.481375775048,1.1509633484,1.13254019239,267.0,52.3336469575,4.867288335,18.7362640375,1,0,0,0,0,0,0,0,-0.206571180232,0.441065092414,-0.119894583976,0.240640786695,0.161385146583,-0.0648078273135,0.0552772605416,-0.118230653882,-0.102605641949
2018-06-19 14:00:43.000,-2.07744675701,3.60917165619,-4.77170231182,1.77780540619,-2.00951222316,2.39060783385,27.4325451692,-33.3994766101,12.1998760638,0.188350445272,-0.504175178481,-0.64362665267,276.0,52.33364885,4.86729726,18.34522705,1,0,0,0,0,0,0,0,-0.152071586016,0.532217492056,-0.0226317520495,-0.153464515566,0.171687019629,-0.144952812995,-0.0610159076601,0.123890467748,-0.0474678212694
2018-06-19 14:00:43.250,-5.1780813976,2.85974130663,-5.13971860621,-1.18944044344,-0.305763701026,-1.29222551042,35.6581313482,-26.7133897138,10.3332407805,0.504549952634,-1.08720350963,-1.26303039726,305.0,52.3336514325,4.867307395,17.489697265,1,0,0,0,0,0,0,0,-0.19162519129,0.435253634262,-0.0758036082354,-0.272194016977,0.14886959597,0.127928728046,0.0750233336422,-0.106350258383,-0.00263528915165
2018-06-19 14:00:43.500,-10.9654220382,2.64624200115,-7.29259108541,-2.60789879704,0.613238714955,-1.74701854298,41.0179858054,-18.0438779771,9.15051333224,-0.0802751419342,0.679968016566,0.484944618899,204.0,52.333654015,4.86731753,16.63416748,1,0,0,0,0,0,0,0,-0.261869802874,0.324231846367,-0.200695924469,0.143585740518,0.154394483537,0.185372813879,0.14152884358,-0.254613854486,-0.0602618172623
2018-06-19 14:00:43.750,-7.89557851572,3.02833766743,-6.98467117381,0.424206308378,-0.854304319035,1.07208150048,33.5893021937,-23.3943031879,14.0422666791,-0.520423090082,1.23057147437,1.17455661796,112.0,52.3336565975,4.867327665,15.778637695,1,0,0,0,0,0,0,0,-0.240761920457,0.407958673488,-0.159980642983,0.250555376383,0.150973911005,-0.0790890600513,0.0357378788491,-0.0831760346095,-0.0927129634264
2018-06-19 14:00:44.000,-2.15365579111,3.3333461824,-5.14880497429,1.84612839596,-1.90926563101,2.41362576483,27.0580107705,-32.8678333466,18.032544593,-0.264468449488,-0.519156258931,-0.468277938753,161.0,52.33365918,4.8673378,14.92310791,1,0,0,0,0,0,0,0,-0.185756244513,0.533277846351,-0.0436716373169,-0.146617894054,0.144138883382,-0.16994099896,-0.0504093982916,0.137304277686,-0.0591683704781
2018-06-19 14:00:44.250,-4.73272593815,3.71189020242,-5.37550852142,-1.01580740464,-0.0305586953086,-0.396069442565,32.7505846464,-28.0275987431,13.9843200021,0.353742101664,-1.12503350144,-1.26594292052,372.0,52.3336612725,4.867348025,14.7542388925,1,0,0,0,0,0,0,0,-0.204356869308,0.47420514821,-0.0673385532932,-0.267362990023,0.131192540624,0.0933831490219,0.066810656577,-0.0179121945441,-0.0167664502362
2018-06-19 14:00:44.500,-10.5199561411,3.78137589107,-6.52786777111,-2.68725044845,1.39501033751,-0.352578424963,38.3574602516,-20.2979001068,10.3917909306,0.331201209583,0.340739295168,0.251992250023,428.0,52.333663365,4.86735825,14.585369875,1,0,0,0,0,0,0,0,-0.248410703303,0.366034119475,-0.168027779218,0.117073490463,0.166851974842,0.183225883461,0.111159216317,-0.101623563379,-0.0518737312751
2018-06-19 14:00:44.750,-8.66057539682,3.20738214774,-6.2435086911,-0.242236043675,-0.71806714886,-0.163224005267,32.7029349395,-25.9111294172,13.472697006,-0.471420790787,1.09805980835,1.2694770636,247.0,52.3336654575,4.867368475,14.4165008575,1,0,0,0,0,0,0,0,-0.23698482243,0.412582240901,-0.134745333102,0.247089902667,0.151044967014,-0.0299956386171,0.0931573702207,-0.153805779451,-0.0948656574248
2018-06-19 14:00:45.000,-3.03650508995,3.3989457507,-4.87371451566,2.02265433481,-2.30964640021,2.10703559021,25.572288017,-33.0568230329,15.1332687083,-0.369281148571,-0.102276024088,-0.0969613659281,231.0,52.33366755,4.8673787,14.24763184,1,0,0,0,0,0,0,0,-0.177166800937,0.516797038425,-0.0273885595393,-0.0602135374372,0.156825519099,-0.184305990535,-0.0269986693343,0.0879192407968,-0.077680586321
2018-06-19 14:00:45.250,-4.42887162869,4.09988108333,-5.0287743056,-0.0592960829384,-0.374747874704,0.0782536220514,28.9522174653,-27.81812368,11.65928425,0.725867872023,-1.04497791947,-1.27439366026,326.0,52.333667595,4.867389055,13.89416199,1,0,0,0,0,0,0,0,-0.184241966439,0.475109864872,-0.0332435772386,-0.24988090846,0.133167117923,0.048251744724,0.0596571216782,0.015119904247,-0.0136194735625
2018-06-19 14:00:45.500,-9.79901512371,3.57011943587,-7.09975441088,-2.83479561639,1.22349770805,-2.0477316237,36.2416079637,-19.7060294163,11.5523231314,0.498727672132,0.0739078482109,-0.0397410572506,354.0,52.33366764,4.86739941,13.54069214,1,0,0,0,0,0,0,0,-0.261162192281,0.366753342396,-0.15350485339,0.0289743838637,0.11380684817,0.205730617044,0.185334358618,-0.210382930485,-0.0383941187922
2018-06-19 14:00:45.750,-8.7355597674,2.95506846318,-7.20210443896,-0.836579967546,-0.350987699424,0.189085960353,33.1992510053,-24.1954582825,16.6769193942,-0.796448058057,1.15865299339,1.21023994204,221.0,52.333667685,4.867409765,13.18722229,1,0,0,0,0,0,0,0,-0.269974262931,0.405919893149,-0.161243885589,0.244358366725,0.132138895833,-0.027891847503,0.100574384389,-0.124458807147,-0.110283269195
2018-06-19 14:00:46.000,-3.18856175857,3.65039862717,-4.96711740188,2.02674098433,-2.10171640402,2.02233398662,25.4472596191,-33.746867441,17.813340286,-0.465778766395,0.103566830966,0.116945358998,177.0,52.33366773,4.86742012,12.83375244,1,0,0,0,0,0,0,0,-0.197354684593,0.529162853595,-0.0332899307089,-0.0179290886984,0.146633808801,-0.197048865068,-0.0128955480084,0.0777516485084,-0.0818050208699
2018-06-19 14:00:46.250,-3.53349543236,4.22053410207,-4.57250487428,0.0308448543791,-0.885465192261,1.07673613556,29.5993414159,-28.8877380664,13.4908952829,0.704926976653,-1.05348146475,-1.24843181918,161.0,52.3336653425,4.8674289375,12.5610473625,1,0,0,0,0,0,0,0,-0.189872812956,0.491005516025,-0.0276102250878,-0.248275412766,0.152752744441,0.00386650513127,0.0147245790132,0.0937889848724,-0.00923336037811
2018-06-19 14:00:46.500,-9.39108475098,3.78062431864,-6.34698484752,-2.70541638455,1.0744891984,-2.13461667417,38.5505082193,-17.5753815126,11.3515855604,0.228709312592,-0.129663404595,-0.397661884038,172.0,52.333662955,4.867437755,12.288342285,1,0,0,0,0,0,0,0,-0.263261338555,0.348683438895,-0.146565904779,-0.0362479198468,0.126723722132,0.224747226481,0.167214145766,-0.200117077825,-0.0164498300277
2018-06-19 14:00:46.750,-9.83245738357,3.54620247935,-6.92359297986,-1.06579083623,0.147092111449,-0.0640782655,34.2399558798,-21.7951524252,14.5389109584,-0.594199778178,1.12297420592,1.07993406488,97.0,52.3336605675,4.8674465725,12.0156372075,1,0,0,0,0,0,0,0,-0.274800000822,0.381184054053,-0.16098860822,0.249514212909,0.142596595166,0.028475325687,0.114133233003,-0.132379546567,-0.0969318153294
2018-06-19 14:00:47.000,-3.96042671434,3.82980093898,-5.47604203984,1.58618398834,-1.8755863228,2.33390481798,24.9685115785,-33.6844689232,18.4390950219,-0.160808050364,0.30789758509,0.480151091071,61.0,52.33365818,4.86745539,11.74293213,1,0,0,0,0,0,0,0,-0.216856129657,0.528370757445,-0.0462983886279,0.060267685872,0.14597695866,-0.196868783231,-0.00246058255671,0.0932844723599,-0.0904048537974
2018-06-19 14:00:47.250,-2.81183386257,3.65394376735,-5.11724135291,0.460086681204,-1.16093759534,0.276053522155,29.2128169972,-31.2018450463,16.6764746758,0.386713105247,-1.10708870715,-1.05801027444,58.5,52.33365561,4.867463845,11.69704895,1,0,0,0,0,0,0,0,-0.215113389713,0.510559650074,-0.0274118975113,-0.267135140082,0.129413911035,-0.0304177967664,0.0400927432672,0.027206351365,-0.0167967298851
2018-06-19 14:00:47.500,-8.27831802461,3.37173459172,-6.5576606662,-2.36833758383,0.863283670748,-2.122070179,39.4960381529,-18.7525474635,12.7031170712,0.204665242835,-0.441205580068,-0.653542885865,75.0,52.33365304,4.8674723,11.65116577,1,0,0,0,0,0,0,0,-0.276507508297,0.362415559922,-0.1402597175,-0.114088076808,0.127873397827,0.207849695089,0.151161880282,-0.190339300654,-0.00623842418314
2018-06-19 14:00:47.750,-10.4047788962,3.54152018221,-6.37046092267,-1.48098628046,0.256288748575,0.0970819697141,38.5107462933,-18.1749057224,14.0810259648,-0.508696978428,0.980451953481,0.943880382331,62.0,52.33365047,4.867480755,11.60528259,1,0,0,0,0,0,0,0,-0.284274119103,0.342443786727,-0.176743592868,0.235171862697,0.168101565163,0.074178792661,0.0903763853181,-0.109454576563,-0.063777182928
2018-06-19 14:00:48.000,-5.59588861887,3.62631820187,-5.13349823876,1.66864699904,-1.91167896496,1.51984544834,31.0524312693,-29.6662154307,16.4665319551,-0.661756703186,0.483845132181,0.721954679707,37.0,52.3336479,4.86748921,11.55939941,1,0,0,0,0,0,0,0,-0.236561643023,0.469760582345,-0.0748117155996,0.105727875676,0.17900057875,-0.144959913449,-0.00265174350221,0.00800051693329,-0.0716098084274
2018-06-19 14:00:48.250,-2.64584159785,3.84831551584,-5.17078542645,0.879684228302,-1.42379156741,1.57485283125,31.0855552369,-31.4711507129,14.3534688064,0.21838551975,-0.877607441072,-1.00243634742,80.0,52.3336457325,4.86749895,11.45254211,1,0,0,0,0,0,0,0,-0.21716662903,0.51341243964,-0.0257124009492,-0.227223238791,0.174777101846,-0.0649931582138,-0.0197165918642,0.0973347039279,-0.0262741967675
2018-06-19 14:00:48.500,-7.4385498019,4.19012479739,-5.2891421968,-2.14629093518,0.807912857555,-1.87978648199,38.4887116285,-21.3125867314,10.0634939338,0.36452658619,-0.626696865776,-0.997522849292,192.0,52.333643565,4.86750869,11.34568481,1,0,0,0,0,0,0,0,-0.248771206589,0.388968690165,-0.0888746851781,-0.164864718332,0.153800639459,0.211195250752,0.133449002613,-0.150939947278,0.00699618362355
2018-06-19 14:00:48.750,-11.1563048473,4.00892040298,-5.42954347747,-1.67049211888,0.540288582488,-0.68606007577,43.1682900482,-19.1637078213,7.37207191833,-0.359341553526,0.751782355964,0.850825773287,207.0,52.3336413975,4.86751843,11.23882751,1,0,0,0,0,0,0,0,-0.27144165308,0.329296546658,-0.151582817184,0.213266340181,0.230729832462,0.156273755166,0.0880242693193,-0.168094186677,-0.0388001983904
2018-06-19 14:00:49.000,-6.53409903458,3.88584644378,-5.34060761822,0.752953647107,-1.50910919048,1.14352819966,38.2711332952,-29.0711577656,10.0216699298,-0.378773133728,0.796267655007,1.06725462502,121.0,52.33363923,4.86752817,11.13197021,1,0,0,0,0,0,0,0,-0.248992662321,0.447576478823,-0.0893210613502,0.188412328692,0.243610143803,-0.0738847643405,-0.00920289316581,-0.0636927858893,-0.055541855797
2018-06-19 14:00:49.250,-2.41375680375,4.02012413381,-4.60912958083,0.904230405656,-1.70837541636,1.64043043175,32.431635316,-35.2175701171,12.4441283881,0.00454588551156,-0.601196548506,-0.868403341625,174.0,52.3336377525,4.86754128,11.32832031,1,0,0,0,0,0,0,0,-0.213889023746,0.535929163394,-0.00341088751171,-0.191732319693,0.212474361284,-0.0806904098518,-0.032522867188,0.0794622796787,-0.0395794617407
2018-06-19 14:00:49.500,-6.19836439503,3.77539903399,-4.94663061618,-1.25906728564,-0.00498212760351,-1.40841721555,39.3590119204,-28.310549863,7.49357260473,0.148464816854,-0.85644087802,-1.42089502008,469.0,52.333636275,4.86755439,11.52467041,1,0,0,0,0,0,0,0,-0.23838371502,0.43790970762,-0.0442031657879,-0.253126606206,0.208802473026,0.170607992896,0.0840151663004,-0.12777867939,-0.0103266652804
2018-06-19 14:00:49.750,-11.1882154394,3.62626548384,-5.22455446459,-2.19605924402,0.648551026036,-0.418826112804,47.5505121019,-20.8125908458,4.57777798887,-0.0582258284009,0.546108871619,0.536033018667,602.0,52.3336347975,4.8675675,11.72102051,1,0,0,0,0,0,0,0,-0.273429253473,0.328905448099,-0.143263060233,0.167020443007,0.283188927625,0.199073708926,0.0587099868565,-0.150010448633,-0.0218140352657
2018-06-19 14:00:50.000,-9.18917332174,4.09900192227,-4.63294514087,0.277935747975,-0.953655670864,0.264268538542,39.4875547132,-28.4235269438,9.30159535449,-0.323525979633,1.06348922916,1.50990155626,422.0,52.33363332,4.86758061,11.91737061,1,0,0,0,0,0,0,0,-0.257518832342,0.415560096821,-0.0949307873973,0.291204019549,0.2594904741,-0.0102407407469,0.0383927396534,-0.131782458365,-0.0499521232086
2018-06-19 14:00:50.250,-3.26342067996,4.29990797558,-4.5191444226,1.71401774339,-1.91123144298,2.48943167104,30.8825402523,-37.2217541886,12.5346539895,0.101219241932,-0.204304256005,-0.416156677243,405.0,52.33363068,4.867596295,12.00379639,1,0,0,0,0,0,0,0,-0.218072171427,0.550138574698,0.00508902523703,-0.0823713012688,0.235115561873,-0.133563350914,-0.0517944900075,0.117522471277,-0.0517102772807
2018-06-19 14:00:50.500,-4.07908033703,3.5554738892,-4.82562189705,-1.06826080794,-0.418616480989,0.694330308937,37.9353862272,-27.6715232728,11.1570040413,0.557790898975,-0.94119495482,-1.67005907218,760.5,52.33362804,4.86761198,12.09022217,1,0,0,0,0,0,0,0,-0.235199792883,0.457552005615,-0.0305409789658,-0.285367366149,0.207886750907,0.0847701484213,0.0133400735139,0.0433228356126,0.0142378666536
2018-06-19 14:00:50.750,-10.4436444703,2.7756383142,-6.38335234865,-2.99777145806,0.706241051489,-1.8310506672,44.4485152301,-16.5851144991,10.751709225,0.222601280013,0.169313932756,0.0431674569205,819.0,52.3336254,4.867627665,12.17664795,1,0,0,0,0,0,0,0,-0.304738015878,0.30784522329,-0.152192636289,0.0483396014297,0.185197406802,0.224562066207,0.146191505003,-0.215038244389,0.00616370119661
2018-06-19 14:00:51.000,-9.97016604448,2.83884206987,-6.73858298864,-0.894835475214,-0.0405943126483,0.712733430828,39.2383285962,-23.3293187957,14.5107400664,-0.31997057528,1.0790365477,1.33721645394,633.0,52.33362276,4.86764335,12.26307373,1,0,0,0,0,0,0,0,-0.31125601642,0.373975713519,-0.148900145226,0.281227039942,0.208986761124,0.0113558795272,0.0699396074348,-0.0903644863551,-0.0627467049891
2018-06-19 14:00:51.250,-4.49581188297,3.69311814685,-4.21642698256,1.43422454291,-1.0294394252,2.58811496289,32.4327834405,-33.3502484292,16.9664401389,-0.190813896036,0.179876425275,0.37932005507,441.0,52.3336189175,4.8676586525,12.3096740725,1,0,0,0,0,0,0,0,-0.24570410135,0.50124220176,-0.0288838596844,0.0497605732506,0.225220771771,-0.144206896523,-0.0368565081845,0.11902602814,-0.0398066007471
2018-06-19 14:00:51.500,-4.28037194055,4.42533415241,-4.60542200188,0.236865829097,-0.845836055596,1.2730080194,31.1463245585,-31.4520393665,15.146548709,0.651099274999,-0.931769569546,-0.587698140601,591.0,52.333615075,4.867673955,12.356274415,1,0,0,0,0,0,0,0,-0.242746514357,0.503707090041,-0.00503827120223,-0.155727685811,0.189245414482,-0.0189518915086,0.0229022656868,0.0995163258769,0.0061236479279
2018-06-19 14:00:51.750,-7.71290821588,3.81339426015,-6.96937672069,-2.66455239691,0.795928675113,0.513917969662,35.1337965207,-24.4744601678,18.4948141574,0.845133377981,-0.518679778429,-0.383092636682,783.0,52.3336112325,4.8676892575,12.4028747575,1,0,0,0,0,0,0,0,-0.3133554703,0.434654022043,-0.104568942829,-0.0561036852102,0.145644821896,0.120210958689,0.110103020908,0.0336735244747,-0.00957375900949
2018-06-19 14:00:52.000,-9.23903443046,2.84494627405,-6.25104370399,-2.50248055854,1.46962962161,0.376949104561,36.3598970129,-21.8503303122,26.089087308,0.112321912798,0.58701159993,0.641972081023,567.0,52.33360739,4.86770456,12.4494751,1,0,0,0,0,0,0,0,-0.342800547383,0.38834972491,-0.156845846743,0.157616156329,0.121694619301,0.0618992930537,0.130855851774,-0.0196771574565,-0.0267745673229
2018-06-19 14:00:52.250,-7.09110640505,3.08693112925,-5.22888176639,0.2228155518,-0.288536580199,0.335757656085,26.3614250693,-27.263203211,26.8839782992,-0.263345928026,0.641737466184,1.23737556204,367.0,52.3336024425,4.86771808,12.47907715,1,0,0,0,0,0,0,0,-0.300544822212,0.441952102483,-0.0769024106978,0.186581715989,0.0912392113672,-0.116853218963,0.131293804079,-0.0292045353622,-0.0474324184314
2018-06-19 14:00:52.500,-3.71893179033,4.02529767427,-4.95312713278,1.34309018124,-1.15806274979,2.32449974737,16.2468443287,-36.6685161256,24.0522808717,-0.0199394254521,-0.383584324089,0.166119986875,368.0,52.333597495,4.8677316,12.5086792,1,0,0,0,0,0,0,0,-0.247206543095,0.555363391621,0.031592201279,-0.035457756253,0.101967407678,-0.205127424863,0.070530980398,0.186197434185,-0.0841168265118
2018-06-19 14:00:52.750,-4.76964605775,4.64780369591,-4.78441783309,-0.227397053695,0.307524117493,1.26748905931,20.1007370126,-36.5309918736,22.5332885384,0.622264812186,-0.999219127624,-0.987587181424,519.0,52.3335925475,4.86774512,12.53828125,1,0,0,0,0,0,0,0,-0.25811085393,0.556406146847,0.0299706606494,-0.195467974603,0.109283735561,-0.0329471658282,0.109799882246,0.162082115774,-0.0529243913321
2018-06-19 14:00:53.000,-9.05986329465,3.88826093097,-5.5376606134,-2.47881837169,1.51075024721,-0.525609670937,29.3100252579,-27.0326654449,22.2042211307,0.721645228174,-0.377075326859,-0.268299747144,606.0,52.3335876,4.86775864,12.5678833,1,0,0,0,0,0,0,0,-0.312370546894,0.43471095757,-0.0700626545676,-0.0239482002195,0.110479308329,0.125562146813,0.18639493415,-0.00889607877949,-0.0272641551626
2018-06-19 14:00:53.250,-10.3552629579,2.81420457751,-5.35996848246,-1.61548355809,0.658588548743,0.0288008784669,27.341166186,-26.4320573848,24.7263687302,-0.106375941678,0.557336982029,1.32369874681,343.0,52.333580915,4.867771805,12.3843811025,1,0,0,0,0,0,0,0,-0.322548563702,0.394601741989,-0.0959678989474,0.233929252852,0.11561495867,-0.000524505081514,0.178415021518,-0.0301159924134,-0.0737849824204
2018-06-19 14:00:53.500,-6.7017307148,3.50483739604,-4.80528244241,1.33483450775,-1.42896379935,0.690111711926,15.3397604072,-35.8523126194,25.0467555274,-0.0849086928615,0.316103608233,1.55048853584,275.0,52.33357423,4.86778497,12.200878905,1,0,0,0,0,0,0,0,-0.272714551655,0.506167954532,0.0112203811049,0.191314842642,0.0881490930152,-0.207991977673,0.153179997351,0.0234485136125,-0.0975593921104
2018-06-19 14:00:53.750,-2.59605219899,4.5599377016,-5.1236716011,0.602978635122,-1.32178618452,2.30268470902,10.9227427429,-38.0983623782,23.1995597044,0.529796954004,-0.620816935207,0.0486931286406,278.5,52.333567545,4.867798135,12.0173767075,1,0,0,0,0,0,0,0,-0.24112306084,0.580609223482,0.0769636957798,-0.0710037395032,0.0724219882283,-0.211374323885,0.107795958552,0.21607921075,-0.08500098097
2018-06-19 14:00:54.000,-5.40615474334,5.50295594817,-6.09258693868,-2.3902184677,1.04310973372,-0.834555242675,19.0018628061,-31.2563327229,26.9058748277,0.472214896101,-0.563364215293,-0.649414338043,354.0,52.33356086,4.8678113,11.83387451,1,0,0,0,0,0,0,0,-0.311317919825,0.536308250539,-0.00115803578678,-0.129191535591,0.0120639290611,0.0424647616642,0.245831875157,0.0126413042338,-0.0478590898796
2018-06-19 14:00:54.250,-10.5362951072,6.12721810594,-7.50168421482,-2.76139386888,0.943112375771,1.20277518851,21.2854296892,-28.6543479141,31.3800403536,0.270267496335,0.10021485677,0.655151578444,282.0,52.3335542825,4.8678256825,11.9618652325,1,0,0,0,0,0,0,0,-0.379430843294,0.506499578482,-0.10380085603,0.16437297719,0.0487444081197,0.0408054198055,0.206968132023,0.128482617842,-0.0924096913499
2018-06-19 14:00:54.500,-7.09222629949,4.27362828402,-5.99038756848,-0.593067917488,-1.37298202524,0.618506250384,10.2732926491,-34.5356222167,31.393417783,-0.26306098579,0.0670681367866,1.18087255468,143.0,52.333547705,4.867840065,12.089855955,1,0,0,0,0,0,0,0,-0.314033997925,0.524891336155,-0.00133852318929,0.136858606622,0.0114986815425,-0.166126857862,0.222494325653,0.0766173999008,-0.12479961758
2018-06-19 14:00:54.750,-2.0796010135,2.98468683262,-3.52802202523,1.28558325417,-2.1040775882,0.703435561191,5.80718546908,-38.5522231971,31.3273880325,-0.244057415805,-0.568001779264,-0.374578172696,145.0,52.3335411275,4.8678544475,12.2178466775,1,0,0,0,0,0,0,0,-0.241729158531,0.556428636598,0.107123230598,-0.163415461604,0.000736330243491,-0.263312194745,0.172395745614,0.126662005901,-0.0943828824099
2018-06-19 14:00:55.000,-5.90634536095,4.12581924263,-5.26328288291,-0.414219062621,-1.04663173822,-1.74455128467,17.9213969334,-32.6512413891,32.0384590212,0.90255690448,-0.771523202351,-1.18805101914,276.0,52.33353455,4.86786883,12.3458374,1,0,0,0,0,0,0,0,-0.327109866985,0.523117560125,0.00832173686318,-0.224388675371,-0.00279057088802,-0.0105496856224,0.242023520926,-0.0545365411898,-0.0176532874483
2018-06-19 14:00:55.250,-10.7420867984,3.73970930041,-7.03408386506,-2.59552010362,0.105204001993,-0.480618738667,24.1969628611,-26.0567223331,32.8063411672,0.585681048581,0.261452939229,0.34256104397,234.0,52.3335276025,4.867883515,12.4173248275,1,0,0,0,0,0,0,0,-0.394179377451,0.435864495694,-0.11233886992,0.112368086719,0.0348296456006,0.0475529773156,0.241541290075,-0.0219919395692,-0.0618577735527
2018-06-19 14:00:55.500,-8.06134785992,2.62190744691,-6.45688886346,-0.303279929052,-1.12580719242,-0.850994062215,12.491143703,-30.5968699388,33.5733825036,-0.791435054804,0.92689596301,1.37165354752,124.0,52.333520655,4.8678982,12.488812255,1,0,0,0,0,0,0,0,-0.348525333877,0.458750156134,-0.0336291900022,0.210862635091,-0.0207844907902,-0.175663409495,0.277945042304,-0.0926362201459,-0.134449761431
2018-06-19 14:00:55.750,-3.21842163587,2.979100769,-6.28423273622,1.4986251112,-3.35726903226,1.30325633406,5.74389087482,-37.7669593795,33.1994705731,-0.549675406177,-0.371185874848,-0.330855635565,110.5,52.3335137075,4.867912885,12.5602996825,1,0,0,0,0,0,0,0,-0.306532661718,0.565732088189,0.0612885162037,-0.131641332325,-0.0120223822491,-0.293015041507,0.16699076005,0.132336616542,-0.134114326933
2018-06-19 14:00:56.000,-4.709359271,3.38904437114,-5.4884445297,-0.650644328886,-1.53412021943,-1.07474975947,15.6125491873,-34.1613106218,31.5437218048,0.352296131335,-1.09569020629,-1.6469654901,200.0,52.33350676,4.86792757,12.63178711,1,0,0,0,0,0,0,0,-0.327855674639,0.526666453965,0.0370712010421,-0.32551733806,0.00150731551133,-0.0397423044796,0.224822095094,0.0141716260083,-0.050156678781
2018-06-19 14:00:56.250,-10.5080118038,3.42712713519,-5.13516154699,-2.11783943561,1.04935354572,-1.04992479904,24.9314258563,-26.7854521006,28.6328425192,0.337433294315,0.317447202801,0.0368815622868,231.0,52.333499665,4.867942425,12.614834595,1,0,0,0,0,0,0,0,-0.364031231419,0.409935397829,-0.0607955574787,0.0752492237374,0.06811286746,0.0718671213316,0.24517722354,-0.0585073107244,-0.0521062843636
2018-06-19 14:00:56.500,-10.2156474721,2.81824988534,-6.19329659284,-0.663413892755,-1.05790420891,-0.278155401609,21.3464791496,-28.3875983849,28.3606500234,-0.339385719959,1.12568195638,1.48889113379,180.0,52.33349257,4.86795728,12.59788208,1,0,0,0,0,0,0,0,-0.370499036741,0.415133004866,-0.0639742857562,0.288110917938,0.0711141292413,-0.101726174468,0.221220810619,-0.0851756994754,-0.103636696717
2018-06-19 14:00:56.750,-3.86316745241,2.61270561383,-5.39766660935,1.51167625082,-2.96825906072,0.853458452271,11.2073475109,-35.6828193557,30.5854664857,-0.633328700567,0.0209703604028,0.0883535925272,166.0,52.333485475,4.867972135,12.580929565,1,0,0,0,0,0,0,0,-0.312554928101,0.520930854684,0.0570571022509,-0.048145141075,0.0300897620428,-0.271299507712,0.157477452091,0.0652893201896,-0.106543995892
2018-06-19 14:00:57.000,-3.48988840738,3.75434158052,-4.02453442752,0.494154356569,-1.22514841593,-0.637685738343,12.0868782183,-36.6798028561,28.7341736302,0.141563249593,-0.930072129767,-1.43793039416,201.0,52.33347838,4.86798699,12.56397705,1,0,0,0,0,0,0,0,-0.292852135994,0.541908317439,0.103183142587,-0.295435150918,0.0204005493855,-0.104791170262,0.207977975686,0.0458947285473,-0.053023811094
2018-06-19 14:00:57.250,-9.91772243521,3.58717420433,-5.11429946937,-2.42483804734,-0.0973912638947,-1.31512551678,24.5769103842,-29.1235254707,28.3747038002,0.591722336654,-0.064265531405,-0.453264686849,364.0,52.333457765,4.8680593375,12.334957885,1,0,0,0,0,0,0,0,-0.381304988075,0.431217562976,-0.02477740761,-0.0215863083616,0.0762678417618,0.0832421181675,0.251396495171,-0.058033126042,-0.0389724697059
2018-06-19 14:00:57.500,-10.9351369142,2.45916320382,-6.35925501886,-1.30892724803,-0.978931346966,-0.539928585878,24.2836841985,-25.8173921694,33.4398004451,-0.199631447197,1.17847046616,1.17206124074,285.0,52.33343715,4.868131685,12.10593872,1,0,0,0,0,0,0,0,-0.431385815848,0.38956437969,-0.0793395412721,0.264331727432,0.0598915034602,-0.0678009428369,0.241328003372,-0.0929884650545,-0.0735484840859
2018-06-19 14:00:57.750,-4.75407937241,2.87626649672,-5.71398308181,1.40805069818,-1.75016222295,2.07631512242,10.2491522798,-32.2025706209,33.758825672,-0.510532286758,0.409678651798,0.617590499208,267.75,52.333416535,4.8682040325,11.876919555,1,0,0,0,0,0,0,0,-0.366052939829,0.49329000591,0.0589898250132,0.079440546359,0.0285325301069,-0.298173724027,0.161598705613,0.158618938864,-0.0933620978464
2018-06-19 14:00:58.000,-2.53698026101,3.33137488706,-5.25355044136,0.39181607145,-1.43274216158,-0.02519292828,9.73433518595,-33.1557196115,31.1976496808,0.357185137844,-1.03567743841,-0.998621147611,250.5,52.33339592,4.86827638,11.64790039,1,0,0,0,0,0,0,0,-0.355692325141,0.517079855957,0.127379127408,-0.264883079742,-0.00250525118522,-0.165197238205,0.227894641177,0.100393343557,-0.026859567351
2018-06-19 14:00:58.250,-7.71497389791,2.89130610853,-6.31371212171,-1.759968378,-0.428004221533,-1.9331005323,23.970038503,-24.3976179011,33.4732183617,0.645306588641,-0.414828319945,-0.677055670727,399.0,52.333385635,4.86828124,11.7508209225,1,0,0,0,0,0,0,0,-0.442379705658,0.412540114627,-0.00895108063149,-0.124570690333,0.015043460198,0.0346570446597,0.28126821232,-0.0884015319368,0.0173032686911
2018-06-19 14:00:58.500,-10.681529181,2.80840140458,-6.72451005226,-1.06106255228,-0.636192938387,-0.468306139433,25.888060968,-23.3879033592,35.7005156383,-0.249322087828,1.00768440776,1.00561101557,305.0,52.33337535,4.8682861,11.853741455,1,0,0,0,0,0,0,0,-0.476753666548,0.382761908723,-0.0742723339203,0.229265980986,0.0531504625745,-0.0596506630553,0.240680041043,-0.0731120657008,-0.0404721562043
2018-06-19 14:00:58.750,-6.01050531323,3.03045483237,-5.57507953306,1.55171495532,-2.10091059842,1.6078518885,11.1757406212,-32.8825083642,34.7513984451,-0.636774457152,0.549139426107,0.819733087958,208.0,52.333365065,4.86829096,11.9566619875,1,0,0,0,0,0,0,0,-0.396665299871,0.486812646943,0.0596290391139,0.122437058403,0.0375834591993,-0.286896382662,0.177349824924,0.115853716303,-0.0929497803803
2018-06-19 14:00:59.000,-2.24063172168,3.05962927487,-5.27046088165,1.19137638162,-1.80756289116,-0.441086511492,8.72488456019,-35.1630465192,33.4147994775,0.0283363370747,-0.895689958095,-1.02930470025,222.0,52.33335478,4.86829582,12.05958252,1,0,0,0,0,0,0,0,-0.368074557621,0.533065235429,0.136838617143,-0.274703207769,-0.0187354624592,-0.202047742944,0.233572354334,0.0562464931997,-0.0371541785343
2018-06-19 14:00:59.250,-6.82123153044,3.09335516778,-6.44181907569,-2.21519821102,0.180268801336,-1.01435454685,24.3178733581,-27.3013872364,34.3221310735,0.322385759416,-0.579736117762,-0.950198527498,331.0,52.333346025,4.868299315,12.070233155,1,0,0,0,0,0,0,0,-0.452010747172,0.447315403882,0.0010226584849,-0.171848638754,0.0287322463118,0.0338072164922,0.249598942874,-0.00369528676276,-0.00273739026714
2018-06-19 14:00:59.500,-11.0271268386,3.35283565458,-7.04937134495,-1.930551491,0.193441373841,-1.16827179405,26.1443325159,-26.0812639989,36.817449006,-0.151931166578,0.989760075598,0.95632067022,262.0,52.33333727,4.86830281,12.08088379,1,0,0,0,0,0,0,0,-0.498086232267,0.413190298195,-0.0733057126117,0.224803811613,0.0392303688899,-0.00684326391329,0.280933908327,-0.11322588996,-0.0476735000164
2018-06-19 14:00:59.750,-5.96435475381,3.52547170874,-6.30838920628,1.42212876452,-1.90734624272,1.93431811238,10.7449730224,-35.3599362214,36.5041302696,-0.378759583072,0.755788328192,0.867228308245,189.0,52.333328515,4.868306305,12.091534425,1,0,0,0,0,0,0,0,-0.419576282195,0.525537973703,0.0538800909717,0.155967830119,0.0288396742417,-0.297144657335,0.176490629007,0.128313303184,-0.103050984144
2018-06-19 14:01:00.000,-1.7649518503,3.60701519301,-5.50578898266,0.996866212577,-2.05632703826,1.54101624204,9.48979352775,-39.6724034951,34.8415804875,0.185492927474,-0.888404430842,-1.02191741982,186.0,52.33331976,4.8683098,12.10218506,1,0,0,0,0,0,0,0,-0.382338578611,0.588286715341,0.13550316779,-0.250476259456,0.0209453674509,-0.241550876579,0.158164358532,0.201869560297,-0.0557484673548
2018-06-19 14:01:00.250,-7.13953919096,3.57761965261,-5.94265635043,-2.16101440365,0.432201170828,-1.72015702238,24.2447547634,-33.0640404985,35.4576115316,0.52432808538,-0.698651759422,-1.02807075467,307.0,52.3333121075,4.8683138375,12.2708709725,1,0,0,0,0,0,0,0,-0.46058710939,0.495424826486,0.0213045328288,-0.190783086849,0.0358425784925,0.0596979499412,0.269108329075,-0.0441232512029,-0.00466045812912
2018-06-19 14:01:00.500,-10.8207489305,2.7413753693,-6.49536626909,-1.97288096749,0.847782881364,-2.19221032831,26.3967041048,-28.5094927077,36.2450250118,-0.422700226512,0.875728467085,0.713427800828,373.0,52.333304455,4.868317875,12.439556885,1,0,0,0,0,0,0,0,-0.493119989543,0.413971276444,-0.0483639110952,0.165955241547,0.037137448282,0.0228355564575,0.309973267684,-0.181261144789,-0.053448187118
2018-06-19 14:01:00.750,-6.25029950334,2.60146745609,-5.19459246112,1.49316295307,-1.85071175233,1.27678895459,11.6374301462,-35.5048907042,34.9346743846,-0.926962701866,0.711001132213,0.871953324641,304.0,52.3332968025,4.8683219125,12.6082427975,1,0,0,0,0,0,0,0,-0.404511519457,0.490884336889,0.0751525636831,0.135755830853,0.0451063528667,-0.283698608543,0.183006795029,0.0813979984962,-0.108082054979
2018-06-19 14:01:01.000,-3.58993844641,4.00866877497,-4.01801800313,1.68903058405,-2.31077479543,1.74382429495,7.84667427327,-41.0522564544,32.4719923172,0.342658653105,-0.717910842257,-0.742138773695,268.0,52.33328915,4.86832595,12.77692871,1,0,0,0,0,0,0,0,-0.359797011502,0.574726608749,0.161903019345,-0.169523615051,0.0552083170928,-0.241944344563,0.147120757037,0.216133159079,-0.0583118681614
2018-06-19 14:01:01.250,-7.19617653006,3.76751198078,-5.73792856512,-2.02537104781,0.120566026144,-1.57271155191,22.5380381785,-30.8375068394,33.6531314187,0.920678112905,-0.526107411481,-1.00619282426,428.0,52.333280795,4.868328975,12.780285645,1,0,0,0,0,0,0,0,-0.447452548206,0.47715592813,0.0368221558023,-0.159695768587,0.0272273928943,0.0492505242943,0.2696837939,-0.0405168481091,0.00955449995125
2018-06-19 14:01:01.500,-10.0339964459,2.36621530279,-7.53281290608,-2.2898094097,0.23802277709,-1.82286172854,26.4731119324,-22.6227248834,37.4353232581,-0.226121537436,0.81787001169,0.582388347212,437.0,52.33327244,4.868332,12.78364258,1,0,0,0,0,0,0,0,-0.508059083851,0.379895007308,-0.0681606808591,0.14067234329,0.00129859663343,0.00714264902605,0.30022521776,-0.156220978567,-0.0293744793286
2018-06-19 14:01:01.750,-7.01727055459,2.88134949705,-6.43098561776,0.923908725315,-1.78294947502,2.22471767305,12.3409917419,-33.496262053,35.3461356848,-0.778707371276,0.608753707766,0.865245955434,321.0,52.333264085,4.868335025,12.786999515,1,0,0,0,0,0,0,0,-0.43226627389,0.486212418749,0.0468076838243,0.151717462686,0.0458246762814,-0.264410499662,0.161910237596,0.154852951864,-0.114587909489
2018-06-19 14:01:02.000,-2.74245413222,3.38651165839,-5.09803862637,1.10678211618,-1.69542407998,1.08846808417,9.9542592331,-40.818594247,31.0394192015,0.0244363616802,-0.686209042192,-0.740202735045,252.0,52.33325573,4.86833805,12.79035645,1,0,0,0,0,0,0,0,-0.378342502243,0.569803560943,0.15554796667,-0.195065169206,0.0448877785416,-0.221668137784,0.168599952593,0.148519054458,-0.0688068494282
2018-06-19 14:01:02.250,-5.71065248432,2.92060076991,-5.86591185695,-1.53750558408,0.209758003703,-1.41704209649,24.3137121527,-30.4229916887,32.3889664011,0.641105546556,-0.534059284631,-0.961627929917,308.0,52.333246075,4.8683415375,12.81074219,1,0,0,0,0,0,0,0,-0.447573151627,0.466042140592,0.0445289094141,-0.18465783818,0.0369316356431,0.0117623322404,0.239689072626,-0.0481612916319,0.0142038359454
2018-06-19 14:01:02.500,-10.8319995497,2.98239955204,-7.21502837384,-2.08469311419,0.441496585801,-1.00520019532,27.058972276,-24.9565429279,34.6467953771,-0.0513932778851,0.722266803174,0.685989525806,314.0,52.33323642,4.868345025,12.83112793,1,0,0,0,0,0,0,0,-0.506479304643,0.394108358451,-0.0567265492054,0.172067921577,0.0458530194314,0.0190356286475,0.262744927889,-0.0930766411083,-0.0369815872326
2018-06-19 14:01:02.750,-7.22382491753,3.07804039034,-6.81784252457,0.790514223244,-1.51427841067,1.13580503647,13.7948813832,-33.2068808142,33.3492305145,-0.828544302692,0.720872066166,0.837073668795,218.0,52.333226765,4.8683485125,12.85151367,1,0,0,0,0,0,0,0,-0.445297691516,0.481860902097,0.0481564646497,0.1493390064,0.0379831299068,-0.225500251852,0.19516668791,0.0581454842489,-0.111803782579
2018-06-19 14:01:03.000,-2.40107303183,3.4145593832,-4.7699460191,1.96806752315,-1.79271315047,1.06219602102,9.66760553273,-37.6501150444,30.9690564676,0.0460736368972,-0.559645021734,-0.856841299342,225.0,52.33321711,4.868352,12.87189941,1,0,0,0,0,0,0,0,-0.374409123828,0.546986689312,0.163504379707,-0.198974587725,0.0302659728767,-0.243119041429,0.156548256986,0.138665450158,-0.0461232952267
2018-06-19 14:01:03.250,-6.55125589312,3.59110951744,-5.07334496782,-1.55368277044,0.567147595644,-1.352630877,20.7259234081,-31.8723690842,31.3961094434,0.902228753776,-0.690584797477,-0.915348928269,334.0,52.3332102325,4.868356415,12.9882019,1,0,0,0,0,0,0,0,-0.431853283243,0.473716825273,0.0761704114191,-0.16938850923,0.0356525106687,0.0310776429762,0.255057398837,-0.0135423119428,0.0108066780796
2018-06-19 14:01:03.500,-10.6785776782,2.86965809635,-7.87335299479,-2.7617501222,0.624027292858,-1.02982535082,25.0444788525,-27.8650054503,33.6936683013,-0.069296285294,0.734825930587,0.877975965915,450.5,52.333203355,4.86836083,13.10450439,1,0,0,0,0,0,0,0,-0.511157596241,0.415927593112,-0.0418959562641,0.190925345696,0.0396832015526,0.0187551620701,0.284738789206,-0.0974670618829,-0.0655242500199
2018-06-19 14:01:03.750,-6.37498828819,2.94353036814,-7.07406013036,0.918095399016,-1.92276827351,1.55739148137,13.9929044826,-33.1038400878,32.136154493,-0.702274531532,0.903581992717,0.912588549088,270.0,52.3331964775,4.868365245,13.22080688,1,0,0,0,0,0,0,0,-0.444409903129,0.484790813061,0.0565214819815,0.168885578329,0.0431013045676,-0.260261868328,0.173385114912,0.0673421635087,-0.108635518188
2018-06-19 14:01:04.000,-2.28702186504,3.38859986732,-4.42494076548,1.35787163796,-1.73118075406,1.55887951569,8.69129284938,-36.5820106913,30.768848594,0.326612533922,-0.542958933407,-0.87070327435,250.0,52.3331896,4.86836966,13.33710937,1,0,0,0,0,0,0,0,-0.36723801625,0.535334431373,0.172659542004,-0.18653103707,0.0289112981021,-0.240820377628,0.150295640793,0.187179662088,-0.0399389045478
2018-06-19 14:01:04.250,-6.26413653955,3.07388772712,-6.48812900422,-1.92361285031,0.611995836146,-2.81228396467,19.4489076383,-29.7238750832,35.4260950351,0.734918986493,-0.492639948375,-0.824311335496,378.0,52.333184085,4.8683732825,14.030239865,1,0,0,0,0,0,0,0,-0.466694158379,0.466912406482,0.0541131644258,-0.172549152698,-0.0387347764048,0.0322211626928,0.330028359798,-0.134712128956,0.0106091582722
2018-06-19 14:01:04.500,-9.97547931627,3.16238232833,-9.01184040718,-1.56866079921,0.414046352254,-0.301654404296,22.717750266,-26.7207805088,38.4136371167,-0.370466486654,0.791569998112,0.865338519574,338.5,52.33317857,4.868376905,14.72337036,1,0,0,0,0,0,0,0,-0.539579140737,0.439825939453,-0.0588061667853,0.186641330345,0.000376529224962,-0.0525347080777,0.265515411256,-0.0488417284353,-0.0682313499335
2018-06-19 14:01:04.750,-5.45410880988,3.26885437477,-6.75734213493,1.37542127273,-1.61023626931,1.81447358226,10.4048798286,-34.7545305862,35.7010009953,-0.746490076845,0.293209739275,0.581892446549,224.0,52.333173055,4.8683805275,15.416500855,1,0,0,0,0,0,0,0,-0.442652700881,0.51757322379,0.0805010688434,0.0684451401852,0.0159064162158,-0.274628280131,0.172290722417,0.141373583311,-0.0964254689634
2018-06-19 14:01:05.000,-2.42891944342,2.93020962345,-4.19882895712,0.808721679694,-1.41805808931,1.47249072076,10.5700493352,-36.8090041904,32.2699057339,0.275809132104,-1.04923622912,-1.16990953071,190.0,52.33316754,4.86838415,16.10963135,1,0,0,0,0,0,0,0,-0.378519256469,0.528308700404,0.165443958193,-0.268888102799,0.0373261636037,-0.19741482513,0.145654075178,0.215468229755,-0.0248031435012
2018-06-19 14:01:05.250,-8.42401064994,2.98172099626,-4.98807617922,-2.22537870064,0.475191369803,-1.54555940624,26.0515617793,-28.5000570114,30.8720567902,0.452038839045,-0.502025125454,-0.69991360136,335.0,52.3331610275,4.86838759,16.2555664075,1,0,0,0,0,0,0,0,-0.458706160941,0.416126377697,0.0382399615302,-0.116197008512,0.0660390533922,0.0815072796488,0.246578224847,-0.0467250580671,0.0169007113425
2018-06-19 14:01:05.500,-11.6551798648,3.25053377581,-6.68879483764,-1.87687826711,-0.117825574409,-0.696897347728,26.2239237183,-26.8324163091,32.0519254317,-0.547212508287,0.811771942018,1.24836620814,378.0,52.333154515,4.86839103,16.401501465,1,0,0,0,0,0,0,0,-0.504637853278,0.392297231293,-0.0321060674143,0.250669830613,0.0778857405222,-0.00105348513585,0.247378114724,-0.080585189023,-0.0531320624852
2018-06-19 14:01:05.750,-5.50827249745,3.50121917932,-6.31212530213,1.33576488324,-2.35677022456,2.79641701193,11.984365297,-35.4802572438,31.0932147712,-0.425720477277,0.372321846352,0.804888366882,316.0,52.3331480025,4.86839447,16.5474365225,1,0,0,0,0,0,0,0,-0.425872562001,0.514383611843,0.0957821656317,0.120447580624,0.0704667821349,-0.289326131193,0.119650460258,0.194978226286,-0.0892091849536
2018-06-19 14:01:06.000,-2.51121063623,3.57310693956,-4.99193934753,0.827721934047,-1.52195817101,0.881668691712,12.2371005544,-38.3785789828,26.9929577525,0.659444085325,-0.787324819501,-1.21080772243,339.0,52.33314149,4.86839791,16.69337158,1,0,0,0,0,0,0,0,-0.382286901124,0.548025945166,0.176911216315,-0.245259960671,0.0552237288265,-0.169050372616,0.159028303348,0.131752620889,-0.0234523411347
2018-06-19 14:01:06.250,-8.35144096223,3.22284677395,-5.45793263853,-2.57799814852,0.959548542534,-2.14762540886,25.6248638111,-30.454302266,27.8055201351,0.299279076301,-0.222793213199,-0.820271026597,546.0,52.333134785,4.8684008975,17.009609985,1,0,0,0,0,0,0,0,-0.457536612343,0.432592681395,0.0568322817343,-0.110042542039,0.0636398339818,0.106055527329,0.279105288045,-0.112932195267,-0.00545661633726
2018-06-19 14:01:06.500,-10.699097151,2.96188063061,-5.97349759397,-1.45296852267,0.120044357933,-0.954583972026,25.1894224961,-28.9812395131,31.0353767925,-0.900519774631,0.959755541594,1.08896380743,531.0,52.33312808,4.868403885,17.32584839,1,0,0,0,0,0,0,0,-0.486011926503,0.402550908624,0.0027974023395,0.225820452631,0.0792725260487,-0.0241459731692,0.249114893109,-0.107059252587,-0.0618697229933
2018-06-19 14:01:06.750,-4.63608708145,3.30079203797,-4.96406228959,2.05301968934,-2.33838569855,2.97671985622,11.7419756596,-37.9372391463,30.4033988984,-0.479031794388,0.244302445509,0.516239283345,310.0,52.333121375,4.8684068725,17.642086795,1,0,0,0,0,0,0,0,-0.402676650622,0.525014098522,0.132626031258,0.0672365226958,0.0920719699231,-0.310860875069,0.0902475665296,0.219249602684,-0.0786246135989
2018-06-19 14:01:07.000,-2.95306370919,3.79704949503,-4.95903568623,0.4559489553,-1.41733840056,-0.223114555947,13.2786024592,-36.9825203343,30.0324491116,0.765540314407,-0.987682699226,-1.37571284285,354.0,52.33311467,4.86840986,17.9583252,1,0,0,0,0,0,0,0,-0.402647633845,0.543772926133,0.165116197148,-0.286684309045,0.0237712212959,-0.119601992903,0.19781239902,0.0716699426085,0.00560791784165
2018-06-19 14:01:07.250,-9.6344594525,3.27856014078,-6.28568855281,-2.73485441806,0.949864509402,-1.4751770592,26.8965875854,-26.3900357708,31.3636633559,0.629255450884,-0.0510174038179,-0.562374967779,440.0,52.3331076675,4.868412925,17.4617584275,1,0,0,0,0,0,0,0,-0.493519943667,0.407507498011,0.00774471874652,-0.0367634635031,0.0486089730404,0.10675954782,0.265075242428,-0.0698149514409,0.00919554925302
2018-06-19 14:01:07.500,-10.7267061748,2.20842544282,-6.75386124518,-0.939944016122,-0.219621260334,-0.961808961973,23.7378734827,-26.7863156586,33.4266876969,-0.480417740129,1.25142464709,1.2833415253,381.0,52.333100665,4.86841599,16.965191655,1,0,0,0,0,0,0,0,-0.504474343233,0.382478172927,-0.0156763369185,0.272058551455,0.0452906396662,-0.0703633708242,0.256924074625,-0.132287382568,-0.0566948322263
2018-06-19 14:01:07.750,-3.88245627254,2.47955847885,-5.55616764738,1.96672209157,-2.37373806382,2.61075522854,11.9043100338,-35.2910975374,34.0473473669,-0.737257624117,0.142947170956,0.221833546076,218.5,52.3330936625,4.868419055,16.4686248825,1,0,0,0,0,0,0,0,-0.424948814432,0.505811138403,0.117667314615,0.000375066155711,0.0503574603706,-0.318256703653,0.101683311516,0.19881606319,-0.074860524379
2018-06-19 14:01:08.000,-3.51227293378,3.57299362664,-4.46607406095,0.0930720370447,-0.757571947151,0.561368362574,17.3983642858,-34.2620646938,30.2598748033,0.205590054327,-1.0913849649,-1.54275466862,296.0,52.33308666,4.86842212,15.97205811,1,0,0,0,0,0,0,0,-0.413767889959,0.508585260909,0.146757460525,-0.303015337089,0.054781030311,-0.0850875240386,0.150953780136,0.141765195384,0.00446571373203
2018-06-19 14:01:08.250,-10.0677724527,3.52944345887,-5.64378809738,-3.15701693817,1.58510586635,-1.39987937136,27.55203487,-25.5183962316,30.1104253982,0.39498835307,0.0894171881842,-0.342575626542,615.0,52.3330796225,4.86842524,16.1953704875,1,0,0,0,0,0,0,0,-0.485740520105,0.391906400931,0.0181217711485,0.0103183267303,0.0591868866915,0.128850183086,0.265265573824,-0.0615943655185,0.00689010724022
2018-06-19 14:01:08.500,-10.0693845133,2.77252722691,-6.45880402946,-1.29553276412,0.152143056518,0.137298030811,19.9971872347,-26.8055430463,34.1045425745,-0.638488835661,1.11405160194,1.40236471282,701.0,52.333072585,4.86842836,16.418682865,1,0,0,0,0,0,0,0,-0.487676693219,0.397928955631,0.0123608303648,0.283566603438,0.0331632753714,-0.0949562622285,0.24153896811,-0.020478724991,-0.0662711900263
2018-06-19 14:01:08.750,-3.90734383408,3.08675539531,-4.77261806208,2.20074886867,-2.31300285858,2.41138087074,8.5118338474,-36.8451538963,31.5855500593,-0.443646209785,-0.098625138648,0.297468497504,462.0,52.3330655475,4.86843148,16.6419952425,1,0,0,0,0,0,0,0,-0.397450012827,0.517905991118,0.163691922091,-0.00392258762824,0.0498171367498,-0.311301643472,0.116038132619,0.207709899061,-0.0656726506397
2018-06-19 14:01:09.000,-3.89704095116,4.03261374989,-4.2379415581,-0.0253217787695,-1.19973950411,0.414414798508,16.2433953964,-33.956377027,28.5651255742,0.619409685468,-1.04664008403,-1.30165134694,638.0,52.33305851,4.8684346,16.86530762,1,0,0,0,0,0,0,0,-0.402468841824,0.507786536723,0.164403060639,-0.258388395211,0.053794293674,-0.0800892158674,0.160953974493,0.128594221029,0.0214914904944
2018-06-19 14:01:09.250,-10.1373804008,3.84538656552,-5.74708523695,-3.0950122681,0.955332706232,-1.80160708528,29.3764183653,-23.9444556904,31.1381070458,0.265787999077,0.0982577216444,-0.0727508918397,853.0,52.333051325,4.8684379575,16.8671081575,1,0,0,0,0,0,0,0,-0.498510946527,0.388123578638,0.0100232659237,0.0346384501324,0.0521508073602,0.128962596154,0.265562903079,-0.0996146801372,0.0308944604082
2018-06-19 14:01:09.500,-10.2243646086,3.22792468408,-6.07747237237,-0.267517679271,-0.715793681814,0.0543264582,20.2565843994,-28.9786262229,31.2021978457,-0.525133636035,1.03624421865,1.49308457668,668.0,52.33304414,4.868441315,16.868908695,1,0,0,0,0,0,0,0,-0.480429795457,0.412900418434,0.0353277941405,0.289213735658,0.0628597895713,-0.112619950724,0.21784739238,-0.0402506975062,-0.0579057274608
2018-06-19 14:01:09.750,-3.55675448226,3.67335160869,-4.85007499816,2.15203312809,-2.53091021072,1.64813974797,4.77651245825,-37.7773560164,28.1111874267,-0.321252070606,-0.0742199346562,0.0539222445739,433.0,52.333036955,4.8684446725,16.8707092325,1,0,0,0,0,0,0,0,-0.381564731489,0.530182607875,0.203230933177,-0.0338330464022,0.0284041611891,-0.298312430243,0.158477828898,0.15289326256,-0.0770642139783
2018-06-19 14:01:10.000,-3.5727127783,4.44851013367,-4.44192795851,-0.648800530997,-0.00982947051049,0.0959322125355,12.5948373048,-33.9706159686,27.2067489211,0.426195867137,-0.941432553721,-1.43333770615,586.0,52.33302977,4.86844803,16.87250977,1,0,0,0,0,0,0,0,-0.395091798969,0.513801317155,0.189243579001,-0.265115529194,0.0218687890507,-0.0563167498477,0.207877734611,0.11920928911,-0.00312367318586
2018-06-19 14:01:10.250,-10.1008697625,4.57173916867,-5.80286480718,-2.5164319165,1.52980669723,-0.90087813955,25.3429700777,-28.0883518454,29.3370771142,0.435745096963,0.219996358189,0.130349598937,570.0,52.33302275,4.86845171,16.7555969275,1,0,0,0,0,0,0,0,-0.491183119399,0.429038172207,0.0385275937504,0.0870934318323,0.0646919837187,0.0915609734273,0.252533869247,-0.0343243060316,-0.0012341537349
2018-06-19 14:01:10.500,-9.03969907175,4.19327474278,-6.11832906865,-0.0163467466883,-1.07171875415,0.65314082541,17.4975686332,-31.8898446414,30.4428351607,-0.587474117876,0.948705013735,1.3409687532,480.0,52.33301573,4.86845539,16.638684085,1,0,0,0,0,0,0,0,-0.474954396212,0.460313536423,0.0668874697291,0.261767012679,0.0623090036555,-0.145957319577,0.199858865425,0.0133436122398,-0.0720716220739
2018-06-19 14:01:10.750,-2.52470287016,3.88217184124,-4.41704042614,1.77182943686,-2.35121210218,0.579103231387,8.4427259761,-39.1270384085,27.7891431856,-0.455472787957,-0.355257627605,-0.437638475854,364.0,52.33300871,4.86845907,16.5217712425,1,0,0,0,0,0,0,0,-0.389193215466,0.546531258466,0.216606053253,-0.140083783612,0.0327551468091,-0.245686202353,0.167779024491,0.0867449555782,-0.0531260868477
2018-06-19 14:01:11.000,-4.76486557701,3.80917477373,-4.62860153673,-0.787839090722,-0.375361803682,-0.606316117731,18.8968195132,-34.8841991287,27.1593448108,0.676950415029,-0.981128261825,-1.54481097705,559.5,52.33300169,4.86846275,16.4048584,1,0,0,0,0,0,0,0,-0.427319161759,0.500053720321,0.159230223763,-0.27827372017,0.0563740656342,-0.00418109372078,0.196154990882,0.045005924235,0.0138107314711
2018-06-19 14:01:11.250,-11.5276320481,3.59733182671,-6.51374335125,-2.73052677173,0.713139908608,-1.22575813186,28.9827918953,-25.8210783434,29.652315045,0.188181829807,0.616966003976,0.381470933864,839.0,52.3329940875,4.8684662375,16.2824676525,1,0,0,0,0,0,0,0,-0.519352548192,0.386870825835,0.00181781489394,0.152629153278,0.073441022666,0.0979495638998,0.250856923895,-0.103868151076,-0.0104925236511
2018-06-19 14:01:11.500,-8.79314060078,3.50511642371,-5.76596543228,0.351147496083,-1.08532342846,0.832882376255,17.7653361167,-31.2132065444,31.0246233162,-0.556429414241,1.26027973575,1.41321483721,597.0,52.332986485,4.868469725,16.160076905,1,0,0,0,0,0,0,0,-0.471933522332,0.442656372415,0.0712482800716,0.293950331012,0.0616359550269,-0.179018285283,0.185627731649,0.00584849290876,-0.0690793350365
2018-06-19 14:01:11.750,-2.40878415892,3.52265383619,-4.12335992021,2.15639520436,-2.32619954265,2.0111639921,7.28234314424,-37.3299384036,33.1882395049,0.156500907542,-0.575632405596,-0.646037970129,389.0,52.3329788825,4.8684732125,16.0376861575,1,0,0,0,0,0,0,0,-0.398374470894,0.540750853668,0.204701726207,-0.159975424434,0.0188028546766,-0.282243434181,0.117769605572,0.222743589139,-0.0259420939158
2018-06-19 14:01:12.000,-5.52180505283,3.02385890976,-5.65393234121,-1.5028976926,-0.13058964201,-1.80505588534,19.6607627491,-27.7171217554,34.9567410768,0.572402091509,-1.09841517989,-1.41406893389,582.5,52.33297128,4.8684767,15.91529541,1,0,0,0,0,0,0,0,-0.476886207266,0.446401576813,0.103241593057,-0.288426168622,-0.0278641221361,0.0302926832418,0.256896844198,-0.0230932157981,0.0444914318299
2018-06-19 14:01:12.250,-11.1218770533,2.72533368841,-7.43823007441,-2.7609080888,1.04695513523,-1.32837389029,27.445329177,-22.7970963581,34.1688089752,-0.0555975775014,0.756759272542,0.836829067232,591.0,52.3329632575,4.8684793625,16.07430725,1,0,0,0,0,0,0,0,-0.547375159454,0.362884889278,-0.0248987235515,0.196136069404,0.0219203148641,0.055051058781,0.273377226504,-0.116701452779,-0.0156115729666
2018-06-19 14:01:12.500,-7.47880580684,3.0769448466,-5.80727950821,1.0336206445,-1.60893094718,1.21168194566,11.8374969281,-32.6489716743,32.7220445153,-0.631294677633,0.977247174179,1.32863096523,357.0,52.332955235,4.868482025,16.23331909,1,0,0,0,0,0,0,0,-0.4618681171,0.45771614037,0.104012705694,0.239505661883,0.028149339318,-0.249284315941,0.184630700722,0.056781507948,-0.0858303848584
2018-06-19 14:01:12.750,-2.3603998587,3.39684861908,-4.25716026241,1.45784524191,-2.20079049219,2.16009343839,5.1594788977,-37.659640509,30.6949714687,-0.228914788461,-0.678352981616,-0.9473466179,364.0,52.3329472125,4.8684846875,16.39233093,1,0,0,0,0,0,0,0,-0.389997665041,0.533711970423,0.225637070455,-0.203733830126,0.0176833475748,-0.26152587872,0.128537791111,0.246829180992,-0.0594015932125
2018-06-19 14:01:13.000,-6.47575902674,3.91962147968,-5.342034956,-2.27060059018,0.586512104863,-1.3479205675,19.4296402547,-31.3351780121,31.1702076078,0.466607816086,-0.695270778125,-1.21497844606,527.0,52.33293919,4.86848735,16.55134277,1,0,0,0,0,0,0,0,-0.470755280961,0.469754711633,0.119831102279,-0.201348934029,0.00918544620424,0.0595153551491,0.257720537893,-0.00337638072724,0.00641455096698
2018-06-19 14:01:13.250,-11.3011902827,4.35687103339,-6.36509820008,-2.37177665477,0.734717148955,-0.0330692100218,23.5448641181,-28.8433689184,33.1704981633,0.0126330186379,0.71448538432,0.956017849358,542.0,52.3329292775,4.868489385,16.739788815,1,0,0,0,0,0,0,0,-0.526609902042,0.428155761878,0.0204676745599,0.237637770045,0.0556968819111,0.0228760742773,0.234546752162,0.000470630732051,-0.0383365753281
2018-06-19 14:01:13.500,-6.53783684745,3.82431362278,-5.91468805784,0.787748412019,-1.57089916916,1.19581998567,11.3039022016,-36.5611981026,30.7232648799,-0.409119904537,0.749754652014,1.06934119463,380.0,52.332919365,4.86849142,16.92823486,1,0,0,0,0,0,0,0,-0.458123765723,0.506154373101,0.134463304629,0.186674272805,0.0372485144628,-0.234163529656,0.181587768731,0.0660153919615,-0.0865321142098
2018-06-19 14:01:13.750,-1.77605500467,3.26209804791,-4.71186655789,0.672911128996,-1.52906991833,2.27380670291,9.15583001538,-39.7986460593,29.09496516,0.36272032554,-0.581685685186,-0.991402875281,318.0,52.3329094525,4.868493455,17.116680905,1,0,0,0,0,0,0,0,-0.404650459781,0.552854775871,0.21801847344,-0.197133472268,0.0427821006057,-0.231192211588,0.113023485449,0.23606995885,-0.0462336107678
